"Time (s)","Acceleration x (m/s^2)","Acceleration y (m/s^2)","Acceleration z (m/s^2)","Absolute acceleration (m/s^2)"
3.596507000E-2,8.853443712E-2,1.722832322E-1,9.798908234E0,9.800822538E0
3.837204900E-2,1.004985496E-1,1.698904037E-1,9.798908234E0,9.800896147E0
4.077902800E-2,1.028913707E-1,1.483550072E-1,9.796515465E0,9.798178968E0
4.318606000E-2,1.004985496E-1,1.459621787E-1,9.803693771E0,9.805295328E0
4.559303900E-2,8.614161611E-2,1.435693651E-1,9.784550667E0,9.785983052E0
4.800001800E-2,9.810572863E-2,1.507478207E-1,9.786943436E0,9.788595990E0
5.040699700E-2,8.853443712E-2,1.674975902E-1,9.798908234E0,9.800739582E0
5.281397600E-2,8.374879509E-2,1.531406492E-1,9.798908234E0,9.800462667E0
5.522095600E-2,9.332008660E-2,1.531406492E-1,9.794121742E0,9.795763441E0
5.762793500E-2,9.571290761E-2,1.674975902E-1,9.791728973E0,9.793629189E0
6.003491400E-2,9.092725813E-2,1.531406492E-1,9.806086540E0,9.807703761E0
6.244189300E-2,9.571290761E-2,1.603191197E-1,9.808479309E0,9.810256344E0
6.484887200E-2,1.004985496E-1,1.435693651E-1,9.801301003E0,9.802867614E0
6.725585100E-2,9.571290761E-2,1.531406492E-1,9.791728973E0,9.793394167E0
6.966288300E-2,8.853443712E-2,1.459621787E-1,9.801301003E0,9.802787596E0
7.206986200E-2,8.853443712E-2,1.555334777E-1,9.796515465E0,9.798150043E0
7.447684100E-2,7.896314561E-2,1.603191197E-1,9.794121742E0,9.795752044E0
7.688382000E-2,7.657032460E-2,1.531406492E-1,9.796515465E0,9.798011550E0
7.929079900E-2,9.092725813E-2,1.674975902E-1,9.798908234E0,9.800761490E0
8.169777800E-2,9.092725813E-2,1.722832322E-1,9.794121742E0,9.796058900E0
8.410475800E-2,8.614161611E-2,1.555334777E-1,9.796515465E0,9.798128714E0
8.651173700E-2,8.853443712E-2,1.555334777E-1,9.784550667E0,9.786187243E0
8.891871600E-2,7.896314561E-2,1.531406492E-1,9.784550667E0,9.786067596E0
9.132569500E-2,8.614161611E-2,1.555334777E-1,9.789336205E0,9.790950636E0
9.373267400E-2,9.332008660E-2,1.579262912E-1,9.789336205E0,9.791054728E0
9.613965300E-2,8.374879509E-2,1.435693651E-1,9.808479309E0,9.809887480E0
9.854668500E-2,9.571290761E-2,1.387837082E-1,9.798908234E0,9.800358384E0
1.009536640E-1,8.853443712E-2,1.363908947E-1,9.782157898E0,9.783509287E0
1.033606430E-1,7.417750359E-2,1.363908947E-1,9.784550667E0,9.785782367E0
1.057676220E-1,7.178468257E-2,1.507478207E-1,9.798908234E0,9.800330633E0
1.081746010E-1,9.332008660E-2,1.579262912E-1,9.808479309E0,9.810194479E0
1.105815810E-1,7.896314561E-2,1.459621787E-1,9.801301003E0,9.802705824E0
1.129885600E-1,1.004985496E-1,1.459621787E-1,9.798908234E0,9.800510573E0
1.153955390E-1,9.571290761E-2,1.627119333E-1,9.803693771E0,9.805511088E0
1.178025180E-1,1.004985496E-1,1.555334777E-1,9.796515465E0,9.798265452E0
1.202094970E-1,9.092725813E-2,1.411765367E-1,9.803693771E0,9.805131827E0
1.226164760E-1,8.614161611E-2,1.579262912E-1,9.796515465E0,9.798166989E0
1.250235080E-1,9.571290761E-2,1.674975902E-1,9.801301003E0,9.803199363E0
1.274304870E-1,6.939185411E-2,1.627119333E-1,9.798908234E0,9.800504731E0
1.298374660E-1,8.853443712E-2,1.698904037E-1,9.779765129E0,9.781641328E0
1.322444450E-1,8.853443712E-2,1.507478207E-1,9.777372360E0,9.778935194E0
1.346514240E-1,1.004985496E-1,1.555334777E-1,9.786943436E0,9.788695134E0
1.370584030E-1,8.614161611E-2,1.579262912E-1,9.806086540E0,9.807736453E0
1.394653830E-1,9.092725813E-2,1.411765367E-1,9.803693771E0,9.805131827E0
1.418723620E-1,9.810572863E-2,1.746760458E-1,9.794121742E0,9.796170535E0
1.442793410E-1,9.332008660E-2,1.674975902E-1,9.791728973E0,9.793606096E0
1.466863200E-1,9.810572863E-2,1.435693651E-1,9.791728973E0,9.793272854E0
1.490932990E-1,1.028913707E-1,1.627119333E-1,9.786943436E0,9.788836684E0
1.515002780E-1,9.332008660E-2,1.459621787E-1,9.779765129E0,9.781299483E0
1.539073100E-1,1.004985496E-1,1.411765367E-1,9.777372360E0,9.778907968E0
1.563142890E-1,1.004985496E-1,1.555334777E-1,9.791728973E0,9.793479816E0
1.587212680E-1,9.810572863E-2,1.555334777E-1,9.803693771E0,9.805418245E0
1.611282470E-1,9.092725813E-2,1.483550072E-1,9.813264847E0,9.814807381E0
1.635352260E-1,1.004985496E-1,1.411765367E-1,9.796515465E0,9.798048072E0
1.659422060E-1,9.332008660E-2,1.363908947E-1,9.808479309E0,9.809871430E0
1.683491850E-1,8.374879509E-2,1.555334777E-1,9.806086540E0,9.807677491E0
1.707561640E-1,7.417750359E-2,1.579262912E-1,9.808479309E0,9.810031059E0
1.731631430E-1,9.092725813E-2,1.483550072E-1,9.810872078E0,9.812414988E0
1.755701220E-1,9.332008660E-2,1.459621787E-1,9.815657616E0,9.817186360E0
1.779771010E-1,1.004985496E-1,1.674975902E-1,9.798908234E0,9.800854961E0
1.803841330E-1,9.092725813E-2,1.627119333E-1,9.789336205E0,9.791110574E0
1.827911120E-1,1.052841991E-1,1.483550072E-1,9.791728973E0,9.793418722E0
1.851980910E-1,8.374879509E-2,1.603191197E-1,9.794121742E0,9.795791789E0
1.876050700E-1,8.853443712E-2,1.507478207E-1,9.794121742E0,9.795681903E0
1.900120490E-1,9.571290761E-2,1.435693651E-1,9.806086540E0,9.807604517E0
1.924190280E-1,9.092725813E-2,1.411765367E-1,9.796515465E0,9.797954574E0
1.948260080E-1,9.571290761E-2,1.579262912E-1,9.791728973E0,9.793470170E0
1.972329870E-1,9.571290761E-2,1.603191197E-1,9.784550667E0,9.786332047E0
1.996399660E-1,9.571290761E-2,1.627119333E-1,9.789336205E0,9.791156186E0
2.020469450E-1,8.853443712E-2,1.674975902E-1,9.808479309E0,9.810308871E0
2.044539240E-1,7.896314561E-2,1.698904037E-1,9.803693771E0,9.805483644E0
2.068609030E-1,8.374879509E-2,1.698904037E-1,9.801301003E0,9.803131028E0
2.092679350E-1,9.332008660E-2,1.555334777E-1,9.786943436E0,9.788624066E0
2.116749140E-1,9.571290761E-2,1.603191197E-1,9.794121742E0,9.795901382E0
2.140818930E-1,9.571290761E-2,1.627119333E-1,9.789336205E0,9.791156186E0
2.164888720E-1,1.028913707E-1,1.603191197E-1,9.796515465E0,9.798367420E0
2.188958510E-1,1.028913707E-1,1.555334777E-1,9.786943436E0,9.788719993E0
2.213028310E-1,8.853443712E-2,1.579262912E-1,9.784550667E0,9.786225565E0
2.237098100E-1,7.657032460E-2,1.483550072E-1,9.794121742E0,9.795544545E0
2.261167890E-1,9.571290761E-2,1.674975902E-1,9.798908234E0,9.800807057E0
2.285237680E-1,1.052841991E-1,1.555334777E-1,9.794121742E0,9.795922424E0
2.309307470E-1,8.853443712E-2,1.603191197E-1,9.786943436E0,9.788656822E0
2.333377260E-1,9.092725813E-2,1.555334777E-1,9.803693771E0,9.805349050E0
2.357447580E-1,1.052841991E-1,1.387837082E-1,9.796515465E0,9.798064142E0
2.381517370E-1,1.076770201E-1,1.435693651E-1,9.789336205E0,9.790981045E0
2.405587160E-1,9.332008660E-2,1.603191197E-1,9.794121742E0,9.795878295E0
2.429656950E-1,9.092725813E-2,1.483550072E-1,9.796515465E0,9.798060636E0
2.453726740E-1,8.374879509E-2,1.603191197E-1,9.796515465E0,9.798185104E0
2.477796530E-1,7.896314561E-2,1.555334777E-1,9.794121742E0,9.795674890E0
2.501866330E-1,9.571290761E-2,1.435693651E-1,9.791728973E0,9.793249175E0
2.525936120E-1,1.124626622E-1,1.531406492E-1,9.789336205E0,9.791179869E0
2.550005910E-1,1.052841991E-1,1.531406492E-1,9.803693771E0,9.805455032E0
2.574075700E-1,1.052841991E-1,1.483550072E-1,9.798908234E0,9.800596744E0
2.598145490E-1,8.853443712E-2,1.435693651E-1,9.794121742E0,9.795574062E0
2.622215280E-1,7.896314561E-2,1.579262912E-1,9.791728973E0,9.793320794E0
2.646285080E-1,8.614161611E-2,1.483550072E-1,9.789336205E0,9.790839234E0
2.670355390E-1,8.614161611E-2,1.698904037E-1,9.786943436E0,9.788796910E0
2.694425180E-1,8.374879509E-2,1.603191197E-1,9.803693771E0,9.805362188E0
2.718494970E-1,9.332008660E-2,1.579262912E-1,9.801301003E0,9.803017428E0
2.742564760E-1,1.076770201E-1,1.459621787E-1,9.791728973E0,9.793408783E0
2.766634560E-1,1.052841991E-1,1.603191197E-1,9.791728973E0,9.793607266E0
2.790704350E-1,9.571290761E-2,1.244267747E-1,9.779765129E0,9.781024944E0
2.814774140E-1,8.853443712E-2,1.387837082E-1,9.794121742E0,9.795505090E0
2.838843930E-1,8.135596663E-2,1.722832322E-1,9.784550667E0,9.786405472E0
2.862913720E-1,9.810572863E-2,1.722832322E-1,9.791728973E0,9.793735882E0
2.886983510E-1,9.332008660E-2,1.459621787E-1,9.796515465E0,9.798047196E0
2.911053310E-1,9.571290761E-2,1.531406492E-1,9.782157898E0,9.783824720E0
2.935123620E-1,9.571290761E-2,1.531406492E-1,9.806086540E0,9.807749296E0
2.959193410E-1,9.092725813E-2,1.555334777E-1,9.798908234E0,9.800564321E0
2.983263200E-1,9.092725813E-2,1.387837082E-1,9.786943436E0,9.788349733E0
3.007332990E-1,9.810572863E-2,1.363908947E-1,9.794121742E0,9.795562664E0
3.031402780E-1,1.028913707E-1,1.555334777E-1,9.801301003E0,9.803074958E0
3.055472580E-1,1.028913707E-1,1.459621787E-1,9.789336205E0,9.790964964E0
3.079542370E-1,9.092725813E-2,1.531406492E-1,9.794121742E0,9.795740938E0
3.103612160E-1,9.332008660E-2,1.507478207E-1,9.794121742E0,9.795726326E0
3.127681950E-1,6.939185411E-2,1.531406492E-1,9.791728973E0,9.793172294E0
3.151751740E-1,8.135596663E-2,1.627119333E-1,9.808479309E0,9.810166172E0
3.175821530E-1,7.178468257E-2,1.722832322E-1,9.794121742E0,9.795899921E0
3.199891330E-1,9.332008660E-2,1.722832322E-1,9.784550667E0,9.786512244E0
3.223961120E-1,9.092725813E-2,1.698904037E-1,9.798908234E0,9.800802676E0
3.248031430E-1,8.135596663E-2,1.483550072E-1,9.801301003E0,9.802761312E0
3.272101220E-1,9.332008660E-2,1.435693651E-1,9.798908234E0,9.800404245E0
3.296171010E-1,9.810572863E-2,1.555334777E-1,9.806086540E0,9.807810593E0
3.320240810E-1,8.614161611E-2,1.268195957E-1,9.796515465E0,9.797714981E0
3.344310600E-1,8.853443712E-2,1.387837082E-1,9.791728973E0,9.793112659E0
3.368380390E-1,9.571290761E-2,1.531406492E-1,9.794121742E0,9.795786529E0
3.392450180E-1,9.571290761E-2,1.555334777E-1,9.796515465E0,9.798217536E0
3.416519970E-1,1.004985496E-1,1.579262912E-1,9.796515465E0,9.798303727E0
3.440589760E-1,9.571290761E-2,1.507478207E-1,9.798908234E0,9.800535110E0
3.464659560E-1,9.810572863E-2,1.603191197E-1,9.789336205E0,9.791140397E0
3.488729350E-1,1.052841991E-1,1.555334777E-1,9.786943436E0,9.788745437E0
3.512799140E-1,1.004985496E-1,1.579262912E-1,9.786943436E0,9.788733446E0
3.536868930E-1,1.028913707E-1,1.603191197E-1,9.798908234E0,9.800759737E0
3.560939240E-1,8.374879509E-2,1.483550072E-1,9.801301003E0,9.802781463E0
3.585009030E-1,9.571290761E-2,1.674975902E-1,9.786943436E0,9.788844580E0
3.609078830E-1,1.004985496E-1,1.674975902E-1,9.786943436E0,9.788892543E0
3.633148620E-1,8.853443712E-2,1.603191197E-1,9.798908234E0,9.800619528E0
3.657218410E-1,8.614161611E-2,1.579262912E-1,9.794121742E0,9.795773670E0
3.681288200E-1,8.614161611E-2,1.387837082E-1,9.796515465E0,9.797877145E0
3.705357990E-1,8.853443712E-2,1.579262912E-1,9.803693771E0,9.805365400E0
3.729427780E-1,8.135596663E-2,1.459621787E-1,9.803693771E0,9.805117812E0
3.753497580E-1,9.571290761E-2,1.435693651E-1,9.801301003E0,9.802819720E0
3.777567370E-1,8.853443712E-2,1.555334777E-1,9.784550667E0,9.786187243E0
3.801637160E-1,9.092725813E-2,1.531406492E-1,9.808479309E0,9.810096135E0
3.825707470E-1,8.853443712E-2,1.555334777E-1,9.820742607E0,9.822373153E0
3.849777260E-1,8.614161611E-2,1.507478207E-1,9.818050385E0,9.819585462E0
3.873847060E-1,8.614161611E-2,1.674975902E-1,9.801301003E0,9.803110586E0
3.897916850E-1,7.657032460E-2,1.603191197E-1,9.803693771E0,9.805303504E0
3.921986640E-1,9.571290761E-2,1.770688742E-1,9.791728973E0,9.793797559E0
3.946056430E-1,9.571290761E-2,1.698904037E-1,9.794121742E0,9.796062699E0
3.970126220E-1,1.028913707E-1,1.722832322E-1,9.801301003E0,9.803355012E0
3.994196010E-1,1.004985496E-1,1.651047617E-1,9.794121742E0,9.796028800E0
4.018265810E-1,9.571290761E-2,1.579262912E-1,9.798908234E0,9.800648154E0
4.042335600E-1,9.332008660E-2,1.531406492E-1,9.796515465E0,9.798156763E0
4.066405390E-1,9.571290761E-2,1.603191197E-1,9.796515465E0,9.798294670E0
4.090475180E-1,7.896314561E-2,1.579262912E-1,9.810872078E0,9.812460793E0
4.114545490E-1,8.374879509E-2,1.698904037E-1,9.803693771E0,9.805523350E0
4.138615280E-1,9.571290761E-2,1.698904037E-1,9.794121742E0,9.796062699E0
4.162685080E-1,8.374879509E-2,1.483550072E-1,9.796515465E0,9.797996648E0
4.186754870E-1,8.135596663E-2,1.387837082E-1,9.789336205E0,9.790657947E0
4.210824660E-1,8.614161611E-2,1.603191197E-1,9.784550667E0,9.786243117E0
4.234894450E-1,8.853443712E-2,1.531406492E-1,9.794121742E0,9.795719019E0
4.258964240E-1,7.896314561E-2,1.555334777E-1,9.798908234E0,9.800460622E0
4.283034030E-1,9.092725813E-2,1.531406492E-1,9.791728973E0,9.793348565E0
4.307103830E-1,1.004985496E-1,1.770688742E-1,9.794121742E0,9.796237750E0
4.331173620E-1,9.092725813E-2,1.651047617E-1,9.789336205E0,9.791150631E0
4.355243410E-1,1.004985496E-1,1.698904037E-1,9.791728973E0,9.793718344E0
4.379313200E-1,9.332008660E-2,1.627119333E-1,9.806086540E0,9.807880354E0
4.403382990E-1,9.092725813E-2,1.435693651E-1,9.794121742E0,9.795595981E0
4.427452780E-1,1.100698411E-1,1.459621787E-1,9.801301003E0,9.803005747E0
4.451523100E-1,9.810572863E-2,1.411765367E-1,9.798908234E0,9.800416222E0
4.475592890E-1,1.028913707E-1,1.531406492E-1,9.791728973E0,9.793466954E0
4.499662680E-1,7.896314561E-2,1.483550072E-1,9.794121742E0,9.795563541E0
4.523732470E-1,8.614161611E-2,1.292124242E-1,9.796515465E0,9.797746245E0
4.547802260E-1,8.374879509E-2,1.435693651E-1,9.798908234E0,9.800317780E0
4.571872060E-1,8.374879509E-2,1.603191197E-1,9.803693771E0,9.805362188E0
4.595941850E-1,9.810572863E-2,1.627119333E-1,9.796515465E0,9.798357779E0
4.620011640E-1,1.028913707E-1,1.531406492E-1,9.801301003E0,9.803037286E0
4.644081430E-1,1.076770201E-1,1.435693651E-1,9.791728973E0,9.793373412E0
4.668151220E-1,9.332008660E-2,1.459621787E-1,9.794121742E0,9.795653847E0
4.692221530E-1,8.374879509E-2,1.603191197E-1,9.791728973E0,9.793399429E0
4.716291330E-1,8.614161611E-2,1.459621787E-1,9.796515465E0,9.797981455E0
4.740361120E-1,6.699903309E-2,1.459621787E-1,9.794121742E0,9.795438455E0
4.764430910E-1,1.076770201E-1,1.579262912E-1,9.794121742E0,9.795986717E0
4.788500700E-1,9.332008660E-2,1.531406492E-1,9.794121742E0,9.795763441E0
4.812570490E-1,9.571290761E-2,1.603191197E-1,9.801301003E0,9.803079339E0
4.836640280E-1,9.810572863E-2,1.531406492E-1,9.796515465E0,9.798203511E0
4.860710080E-1,1.052841991E-1,1.435693651E-1,9.796515465E0,9.798133097E0
4.884779870E-1,9.571290761E-2,1.507478207E-1,9.796515465E0,9.798142738E0
4.908849660E-1,7.657032460E-2,1.435693651E-1,9.784550667E0,9.785903480E0
4.932919450E-1,8.135596663E-2,1.507478207E-1,9.796515465E0,9.798013010E0
4.956989240E-1,8.374879509E-2,1.674975902E-1,9.813264847E0,9.815051516E0
4.981059030E-1,9.332008660E-2,1.698904037E-1,9.789336205E0,9.791255012E0
5.005129350E-1,8.853443712E-2,1.603191197E-1,9.796515465E0,9.798227177E0
5.029199140E-1,8.135596663E-2,1.531406492E-1,9.796515465E0,9.798050117E0
5.053268930E-1,8.374879509E-2,1.579262912E-1,9.796515465E0,9.798146244E0
5.077338720E-1,8.374879509E-2,1.579262912E-1,9.810872078E0,9.812500472E0
5.101408510E-1,9.092725813E-2,1.483550072E-1,9.798908234E0,9.800453028E0
5.125478310E-1,1.052841991E-1,1.627119333E-1,9.794121742E0,9.796039028E0
5.149548100E-1,1.052841991E-1,1.674975902E-1,9.782157898E0,9.784158285E0
5.173617890E-1,8.614161611E-2,1.603191197E-1,9.791728973E0,9.793420183E0
5.197687680E-1,8.614161611E-2,1.507478207E-1,9.798908234E0,9.800446309E0
5.221757470E-1,9.571290761E-2,1.555334777E-1,9.796515465E0,9.798217536E0
5.245827260E-1,9.810572863E-2,1.555334777E-1,9.786943436E0,9.788670860E0
5.269897060E-1,9.571290761E-2,1.507478207E-1,9.789336205E0,9.790964671E0
5.293966850E-1,1.028913707E-1,1.411765367E-1,9.789336205E0,9.790894789E0
5.318037160E-1,9.571290761E-2,1.627119333E-1,9.784550667E0,9.786371538E0
5.342106950E-1,7.178468257E-2,1.603191197E-1,9.796515465E0,9.798090146E0
5.366176740E-1,7.657032460E-2,1.794617027E-1,9.806086540E0,9.808027465E0
5.390246530E-1,6.699903309E-2,1.674975902E-1,9.791728973E0,9.793390659E0
5.414316330E-1,8.853443712E-2,1.603191197E-1,9.791728973E0,9.793441523E0
5.438386120E-1,8.853443712E-2,1.531406492E-1,9.796515465E0,9.798112352E0
5.462455910E-1,8.135596663E-2,1.387837082E-1,9.796515465E0,9.797836239E0
5.486525700E-1,8.374879509E-2,1.555334777E-1,9.796515465E0,9.798107969E0
5.510595490E-1,7.417750359E-2,1.555334777E-1,9.803693771E0,9.805208031E0
5.534665280E-1,8.135596663E-2,1.531406492E-1,9.808479309E0,9.810012090E0
5.558735080E-1,8.853443712E-2,1.579262912E-1,9.803693771E0,9.805365400E0
5.582804870E-1,8.135596663E-2,1.603191197E-1,9.813264847E0,9.814911511E0
5.606874660E-1,1.004985496E-1,1.507478207E-1,9.796515465E0,9.798190655E0
5.630944450E-1,9.571290761E-2,1.555334777E-1,9.798908234E0,9.800609889E0
5.655014760E-1,9.571290761E-2,1.435693651E-1,9.798908234E0,9.800427322E0
5.679084560E-1,8.853443712E-2,1.603191197E-1,9.796515465E0,9.798227177E0
5.703154350E-1,8.135596663E-2,1.507478207E-1,9.806086540E0,9.807582624E0
5.727224140E-1,7.896314561E-2,1.435693651E-1,9.798908234E0,9.800278053E0
5.751293930E-1,9.332008660E-2,1.435693651E-1,9.794121742E0,9.795618485E0
5.775363720E-1,8.614161611E-2,1.555334777E-1,9.798908234E0,9.800521089E0
5.799433510E-1,9.092725813E-2,1.555334777E-1,9.810872078E0,9.812526146E0
5.823503310E-1,1.004985496E-1,1.698904037E-1,9.806086540E0,9.808072998E0
5.847573100E-1,9.571290761E-2,1.722832322E-1,9.794121742E0,9.796104490E0
5.871642890E-1,8.135596663E-2,1.435693651E-1,9.796515465E0,9.797905195E0
5.895712680E-1,9.092725813E-2,1.435693651E-1,9.801301003E0,9.802774162E0
5.919782470E-1,8.853443712E-2,1.411765367E-1,9.808479309E0,9.809894776E0
5.943852260E-1,8.374879509E-2,1.363908947E-1,9.801301003E0,9.802607698E0
5.967922580E-1,9.332008660E-2,1.555334777E-1,9.801301003E0,9.802979172E0
5.991992370E-1,8.614161611E-2,1.555334777E-1,9.801301003E0,9.802913464E0
6.016062160E-1,9.571290761E-2,1.483550072E-1,9.796515465E0,9.798106216E0
6.040131950E-1,8.374879509E-2,1.387837082E-1,9.803693771E0,9.805033725E0
6.064201740E-1,9.092725813E-2,1.555334777E-1,9.803693771E0,9.805349050E0
6.088271530E-1,1.028913707E-1,1.603191197E-1,9.798908234E0,9.800759737E0
6.112341330E-1,9.571290761E-2,1.627119333E-1,9.810872078E0,9.812688065E0
6.136411120E-1,8.614161611E-2,1.579262912E-1,9.808479309E0,9.810128819E0
6.160480910E-1,1.004985496E-1,1.387837082E-1,9.794121742E0,9.795620531E0
6.184550700E-1,9.571290761E-2,1.603191197E-1,9.786943436E0,9.788724380E0
6.208620490E-1,9.332008660E-2,1.651047617E-1,9.791728973E0,9.793565465E0
6.232690280E-1,9.571290761E-2,1.507478207E-1,9.784550667E0,9.786179930E0
6.256760080E-1,9.571290761E-2,1.507478207E-1,9.794121742E0,9.795749413E0
6.280830390E-1,7.657032460E-2,1.507478207E-1,9.786943436E0,9.788403840E0
6.304900180E-1,8.374879509E-2,1.483550072E-1,9.794121742E0,9.795603288E0
6.328969970E-1,9.092725813E-2,1.507478207E-1,9.789336205E0,9.790919058E0
6.353039760E-1,9.332008660E-2,1.483550072E-1,9.798908234E0,9.800475520E0
6.377109560E-1,9.092725813E-2,1.555334777E-1,9.789336205E0,9.790993910E0
6.401179350E-1,9.332008660E-2,1.674975902E-1,9.794121742E0,9.795998407E0
6.425249140E-1,9.810572863E-2,1.651047617E-1,9.796515465E0,9.798397806E0
6.449318930E-1,9.332008660E-2,1.483550072E-1,9.806086540E0,9.807652679E0
6.473388720E-1,9.092725813E-2,1.507478207E-1,9.810872078E0,9.812451457E0
6.497458510E-1,9.332008660E-2,1.531406492E-1,9.815657616E0,9.817295713E0
6.521528310E-1,9.571290761E-2,1.435693651E-1,9.806086540E0,9.807604517E0
6.545598100E-1,8.614161611E-2,1.459621787E-1,9.798908234E0,9.800373866E0
6.569667890E-1,9.571290761E-2,1.746760458E-1,9.791728973E0,9.793754590E0
6.593738200E-1,1.028913707E-1,1.555334777E-1,9.791728973E0,9.793504663E0
6.617807990E-1,1.124626622E-1,1.579262912E-1,9.808479309E0,9.810395248E0
6.641877780E-1,9.571290761E-2,1.674975902E-1,9.803693771E0,9.805591668E0
6.665947580E-1,1.004985496E-1,1.435693651E-1,9.808479309E0,9.810044775E0
6.690017370E-1,8.135596663E-2,1.435693651E-1,9.798908234E0,9.800297624E0
6.714087160E-1,9.810572863E-2,1.579262912E-1,9.808479309E0,9.810241170E0
6.738156950E-1,9.092725813E-2,1.411765367E-1,9.803693771E0,9.805131827E0
6.762226740E-1,8.135596663E-2,1.387837082E-1,9.801301003E0,9.802621132E0
6.786296530E-1,6.939185411E-2,1.579262912E-1,9.786943436E0,9.788463503E0
6.810366330E-1,8.853443712E-2,1.531406492E-1,9.796515465E0,9.798112352E0
6.834436120E-1,9.092725813E-2,1.627119333E-1,9.801301003E0,9.803073206E0
6.858505910E-1,9.332008660E-2,1.531406492E-1,9.825528145E0,9.827164597E0
6.882575700E-1,1.004985496E-1,1.579262912E-1,9.810872078E0,9.812657724E0
6.906646010E-1,9.810572863E-2,1.555334777E-1,9.796515465E0,9.798241202E0
6.930715810E-1,9.332008660E-2,1.579262912E-1,9.801301003E0,9.803017428E0
6.954785600E-1,8.374879509E-2,1.579262912E-1,9.810872078E0,9.812500472E0
6.978855390E-1,1.004985496E-1,1.459621787E-1,9.796515465E0,9.798118195E0
7.002925180E-1,9.092725813E-2,1.435693651E-1,9.786943436E0,9.788418756E0
7.026994970E-1,9.810572863E-2,1.483550072E-1,9.801301003E0,9.802914632E0
7.051064760E-1,9.092725813E-2,1.411765367E-1,9.803693771E0,9.805131827E0
7.075134560E-1,9.810572863E-2,1.483550072E-1,9.803693771E0,9.805307007E0
7.099204350E-1,9.332008660E-2,1.555334777E-1,9.810872078E0,9.812548610E0
7.123274140E-1,9.332008660E-2,1.579262912E-1,9.798908234E0,9.800625078E0
7.147343930E-1,9.810572863E-2,1.555334777E-1,9.794121742E0,9.795847901E0
7.171413720E-1,8.374879509E-2,1.555334777E-1,9.794121742E0,9.795714636E0
7.195483510E-1,8.135596663E-2,1.579262912E-1,9.801301003E0,9.802910835E0
7.219553830E-1,8.135596663E-2,1.746760458E-1,9.784550667E0,9.786447888E0
7.243623620E-1,8.135596663E-2,1.651047617E-1,9.794121742E0,9.795851116E0
7.267693410E-1,9.092725813E-2,1.507478207E-1,9.803693771E0,9.805274307E0
7.291763200E-1,8.614161611E-2,1.411765367E-1,9.808479309E0,9.809873473E0
7.315832990E-1,9.571290761E-2,1.363908947E-1,9.803693771E0,9.805109637E0
7.339902780E-1,8.135596663E-2,1.531406492E-1,9.794121742E0,9.795656770E0
7.363972580E-1,8.614161611E-2,1.579262912E-1,9.801301003E0,9.802951720E0
7.388042370E-1,1.004985496E-1,1.483550072E-1,9.794121742E0,9.795760811E0
7.412112160E-1,1.052841991E-1,1.387837082E-1,9.801301003E0,9.802848924E0
7.436181950E-1,9.092725813E-2,1.627119333E-1,9.808479309E0,9.810250216E0
7.460251740E-1,7.417750359E-2,1.579262912E-1,9.806086540E0,9.807638668E0
7.484321530E-1,8.614161611E-2,1.483550072E-1,9.803693771E0,9.805194600E0
7.508391330E-1,9.810572863E-2,1.531406492E-1,9.791728973E0,9.793417845E0
7.532461120E-1,1.076770201E-1,1.459621787E-1,9.786943436E0,9.788624066E0
7.556531430E-1,8.853443712E-2,1.459621787E-1,9.796515465E0,9.798002784E0
7.580601220E-1,8.135596663E-2,1.363908947E-1,9.808479309E0,9.809764912E0
7.604671010E-1,7.896314561E-2,1.507478207E-1,9.810872078E0,9.812347885E0
7.628740810E-1,8.853443712E-2,1.555334777E-1,9.810872078E0,9.812504264E0
7.652810600E-1,9.092725813E-2,1.483550072E-1,9.815657616E0,9.817199774E0
7.676880390E-1,8.135596663E-2,1.579262912E-1,9.815657616E0,9.817265094E0
7.700950180E-1,9.810572863E-2,1.555334777E-1,9.813264847E0,9.814987639E0
7.725019970E-1,9.571290761E-2,1.627119333E-1,9.803693771E0,9.805511088E0
7.749089760E-1,8.853443712E-2,1.627119333E-1,9.808479309E0,9.810228329E0
7.773159560E-1,9.092725813E-2,1.555334777E-1,9.794121742E0,9.795778638E0
7.797229350E-1,1.076770201E-1,1.507478207E-1,9.801301003E0,9.803051596E0
7.821299140E-1,8.853443712E-2,1.579262912E-1,9.803693771E0,9.805365400E0
7.845368930E-1,7.178468257E-2,1.411765367E-1,9.803693771E0,9.804972994E0
7.869438720E-1,9.332008660E-2,1.459621787E-1,9.791728973E0,9.793261453E0
7.893509030E-1,9.571290761E-2,1.555334777E-1,9.796515465E0,9.798217536E0
7.917578830E-1,9.571290761E-2,1.531406492E-1,9.796515465E0,9.798179845E0
7.941648620E-1,7.896314561E-2,1.722832322E-1,9.794121742E0,9.795955155E0
7.965718410E-1,9.332008660E-2,1.794617027E-1,9.794121742E0,9.796210280E0
7.989788200E-1,9.571290761E-2,1.627119333E-1,9.794121742E0,9.795940835E0
8.013857990E-1,1.052841991E-1,1.459621787E-1,9.791728973E0,9.793382766E0
8.037927780E-1,9.092725813E-2,1.387837082E-1,9.801301003E0,9.802705240E0
8.061997580E-1,1.028913707E-1,1.555334777E-1,9.801301003E0,9.803074958E0
8.086067370E-1,7.178468257E-2,1.483550072E-1,9.815657616E0,9.817041137E0
8.110137160E-1,8.374879509E-2,1.507478207E-1,9.813264847E0,9.814779963E0
8.134206950E-1,9.332008660E-2,1.579262912E-1,9.806086540E0,9.807802128E0
8.158276740E-1,9.571290761E-2,1.579262912E-1,9.808479309E0,9.810217532E0
8.182346530E-1,1.052841991E-1,1.531406492E-1,9.796515465E0,9.798278016E0
8.206416850E-1,1.052841991E-1,1.555334777E-1,9.782157898E0,9.783960781E0
8.230486640E-1,9.810572863E-2,1.579262912E-1,9.801301003E0,9.803064153E0
8.254556430E-1,8.374879509E-2,1.698904037E-1,9.803693771E0,9.805523350E0
8.278626220E-1,9.571290761E-2,1.555334777E-1,9.810872078E0,9.812571658E0
8.302696010E-1,8.614161611E-2,1.531406492E-1,9.791728973E0,9.793305301E0
8.326765810E-1,8.614161611E-2,1.674975902E-1,9.789336205E0,9.791147999E0
8.350835600E-1,7.417750359E-2,1.411765367E-1,9.815657616E0,9.816953068E0
8.374905390E-1,7.896314561E-2,1.411765367E-1,9.794121742E0,9.795457452E0
8.398975180E-1,9.332008660E-2,1.651047617E-1,9.798908234E0,9.800743380E0
8.423044970E-1,1.004985496E-1,1.698904037E-1,9.791728973E0,9.793718344E0
8.447114760E-1,9.571290761E-2,1.579262912E-1,9.784550667E0,9.786293140E0
8.471184560E-1,8.853443712E-2,1.698904037E-1,9.794121742E0,9.795995192E0
8.495254350E-1,8.853443712E-2,1.627119333E-1,9.798908234E0,9.800658962E0
8.519324660E-1,8.374879509E-2,1.507478207E-1,9.801301003E0,9.802817968E0
8.543393930E-1,1.052841991E-1,1.483550072E-1,9.791728973E0,9.793418722E0
8.567464240E-1,1.076770201E-1,1.507478207E-1,9.786943436E0,9.788696597E0
8.591534030E-1,1.004985496E-1,1.531406492E-1,9.782157898E0,9.783872708E0
8.615603830E-1,8.853443712E-2,1.507478207E-1,9.789336205E0,9.790897128E0
8.639673620E-1,8.853443712E-2,1.555334777E-1,9.801301003E0,9.802934783E0
8.663743410E-1,8.853443712E-2,1.627119333E-1,9.798908234E0,9.800658962E0
8.687813200E-1,8.614161611E-2,1.507478207E-1,9.791728973E0,9.793268176E0
8.711882990E-1,9.810572863E-2,1.531406492E-1,9.791728973E0,9.793417845E0
8.735952780E-1,7.417750359E-2,1.507478207E-1,9.808479309E0,9.809918122E0
8.760022580E-1,9.810572863E-2,1.627119333E-1,9.791728973E0,9.793572188E0
8.784092370E-1,9.810572863E-2,1.627119333E-1,9.789336205E0,9.791179869E0
8.808162160E-1,1.004985496E-1,1.459621787E-1,9.798908234E0,9.800510573E0
8.832231950E-1,9.810572863E-2,1.627119333E-1,9.808479309E0,9.810319376E0
8.856301740E-1,9.092725813E-2,1.579262912E-1,9.810872078E0,9.812564365E0
8.880371530E-1,1.004985496E-1,1.531406492E-1,9.791728973E0,9.793442107E0
8.904441850E-1,7.896314561E-2,1.435693651E-1,9.784550667E0,9.785922496E0
8.928511640E-1,9.092725813E-2,1.531406492E-1,9.786943436E0,9.788563819E0
8.952581430E-1,9.332008660E-2,1.531406492E-1,9.791728973E0,9.793371074E0
8.976651220E-1,8.614161611E-2,1.555334777E-1,9.786943436E0,9.788558262E0
9.000721010E-1,9.092725813E-2,1.627119333E-1,9.786943436E0,9.788718238E0
9.024790810E-1,1.028913707E-1,1.555334777E-1,9.798908234E0,9.800682623E0
9.048860600E-1,9.810572863E-2,1.603191197E-1,9.806086540E0,9.807887652E0
9.072930390E-1,9.571290761E-2,1.555334777E-1,9.803693771E0,9.805394596E0
9.097000180E-1,9.571290761E-2,1.651047617E-1,9.823135376E0,9.824989016E0
9.121069970E-1,8.374879509E-2,1.579262912E-1,9.815657616E0,9.817285215E0
9.145139760E-1,8.853443712E-2,1.579262912E-1,9.803693771E0,9.805365400E0
9.169209560E-1,9.332008660E-2,1.627119333E-1,9.796515465E0,9.798311031E0
9.193279350E-1,9.092725813E-2,1.459621787E-1,9.815657616E0,9.817163906E0
9.217349140E-1,9.810572863E-2,1.603191197E-1,9.798908234E0,9.800710664E0
9.241419450E-1,9.332008660E-2,1.507478207E-1,9.791728973E0,9.793333949E0
9.265489240E-1,1.004985496E-1,1.579262912E-1,9.798908234E0,9.800696059E0
9.289559030E-1,9.571290761E-2,1.651047617E-1,9.801301003E0,9.803158771E0
9.313628830E-1,9.571290761E-2,1.507478207E-1,9.801301003E0,9.802927482E0
9.337698620E-1,9.810572863E-2,1.603191197E-1,9.820742607E0,9.822541031E0
9.361768410E-1,9.332008660E-2,1.746760458E-1,9.803693771E0,9.805693852E0
9.385838200E-1,8.853443712E-2,1.603191197E-1,9.796515465E0,9.798227177E0
9.409907990E-1,9.332008660E-2,1.435693651E-1,9.798908234E0,9.800404245E0
9.433977780E-1,1.052841991E-1,1.483550072E-1,9.798908234E0,9.800596744E0
9.458047580E-1,7.657032460E-2,1.627119333E-1,9.798908234E0,9.800558186E0
9.482117370E-1,7.417750359E-2,1.698904037E-1,9.789336205E0,9.791091276E0
9.506187160E-1,7.657032460E-2,1.483550072E-1,9.791728973E0,9.793152123E0
9.530256950E-1,8.853443712E-2,1.411765367E-1,9.784550667E0,9.785969595E0
9.554326740E-1,9.571290761E-2,1.483550072E-1,9.794121742E0,9.795712882E0
9.578397060E-1,8.614161611E-2,1.459621787E-1,9.803693771E0,9.805158688E0
9.602466850E-1,7.896314561E-2,1.363908947E-1,9.803693771E0,9.804960439E0
9.626536640E-1,7.417750359E-2,1.627119333E-1,9.810872078E0,9.812501638E0
9.650606430E-1,9.092725813E-2,1.651047617E-1,9.789336205E0,9.791150631E0
9.674676220E-1,8.614161611E-2,1.651047617E-1,9.798908234E0,9.800677657E0
9.698746010E-1,1.004985496E-1,1.555334777E-1,9.806086540E0,9.807834820E0
9.722815810E-1,8.853443712E-2,1.555334777E-1,9.808479309E0,9.810111894E0
9.746885600E-1,9.571290761E-2,1.555334777E-1,9.823135376E0,9.824832835E0
9.770955390E-1,9.810572863E-2,1.603191197E-1,9.823135376E0,9.824933362E0
9.795025180E-1,1.124626622E-1,1.435693651E-1,9.823135376E0,9.824828173E0
9.819094970E-1,9.810572863E-2,1.531406492E-1,9.810872078E0,9.812557654E0
9.843164760E-1,1.004985496E-1,1.507478207E-1,9.803693771E0,9.805367735E0
9.867234560E-1,9.092725813E-2,1.555334777E-1,9.810872078E0,9.812526146E0
9.891304350E-1,9.810572863E-2,1.507478207E-1,9.806086540E0,9.807735869E0
9.915374140E-1,1.076770201E-1,1.507478207E-1,9.808479309E0,9.810228621E0
9.939444450E-1,1.124626622E-1,1.507478207E-1,9.815657616E0,9.817459304E0
9.963514240E-1,9.332008660E-2,1.603191197E-1,9.813264847E0,9.815017973E0
9.987584030E-1,8.374879509E-2,1.603191197E-1,9.801301003E0,9.802969827E0
1.001165383E0,7.896314561E-2,1.627119333E-1,9.796515465E0,9.798184812E0
1.003572362E0,7.896314561E-2,1.459621787E-1,9.798908234E0,9.800313398E0
1.005979341E0,8.374879509E-2,1.459621787E-1,9.784550667E0,9.785997679E0
1.008386320E0,8.135596663E-2,1.603191197E-1,9.774979591E0,9.776632704E0
1.010793299E0,8.374879509E-2,1.387837082E-1,9.791728973E0,9.793070564E0
1.013200278E0,7.896314561E-2,1.316052526E-1,9.796515465E0,9.797717610E0
1.015607258E0,8.374879509E-2,1.411765367E-1,9.806086540E0,9.807460319E0
1.018014237E0,9.571290761E-2,1.411765367E-1,9.798908234E0,9.800392561E0
1.020421216E0,9.332008660E-2,1.483550072E-1,9.798908234E0,9.800475520E0
1.022828195E0,9.092725813E-2,1.579262912E-1,9.796515465E0,9.798210231E0
1.025235174E0,8.374879509E-2,1.435693651E-1,9.801301003E0,9.802710205E0
1.027642206E0,1.028913707E-1,1.555334777E-1,9.806086540E0,9.807859630E0
1.030049185E0,1.004985496E-1,1.651047617E-1,9.798908234E0,9.800814360E0
1.032456164E0,1.028913707E-1,1.674975902E-1,9.791728973E0,9.793701974E0
1.034863143E0,9.571290761E-2,1.507478207E-1,9.808479309E0,9.810104598E0
1.037270122E0,1.076770201E-1,1.507478207E-1,9.810872078E0,9.812620964E0
1.039677101E0,1.124626622E-1,1.531406492E-1,9.798908234E0,9.800750098E0
1.042084081E0,9.092725813E-2,1.698904037E-1,9.796515465E0,9.798410369E0
1.044491060E0,9.332008660E-2,1.483550072E-1,9.806086540E0,9.807652679E0
1.046898039E0,8.853443712E-2,1.387837082E-1,9.796515465E0,9.797898474E0
1.049305018E0,7.657032460E-2,1.483550072E-1,9.796515465E0,9.797937920E0
1.051711997E0,9.332008660E-2,1.555334777E-1,9.796515465E0,9.798194454E0
1.054118976E0,9.332008660E-2,1.531406492E-1,9.803693771E0,9.805333868E0
1.056525956E0,1.004985496E-1,1.579262912E-1,9.801301003E0,9.803088392E0
1.058932935E0,1.004985496E-1,1.579262912E-1,9.784550667E0,9.786341115E0
1.061339914E0,9.092725813E-2,1.459621787E-1,9.803693771E0,9.805201899E0
1.063746945E0,8.135596663E-2,1.603191197E-1,9.786943436E0,9.788594528E0
1.066153924E0,8.853443712E-2,1.531406492E-1,9.796515465E0,9.798112352E0
1.068560903E0,9.810572863E-2,1.483550072E-1,9.796515465E0,9.798129882E0
1.070967883E0,1.052841991E-1,1.698904037E-1,9.803693771E0,9.805730930E0
1.073374862E0,1.028913707E-1,1.698904037E-1,9.801301003E0,9.803313252E0
1.075781841E0,7.657032460E-2,1.603191197E-1,9.794121742E0,9.795733047E0
1.078188820E0,8.135596663E-2,1.603191197E-1,9.786943436E0,9.788594528E0
1.080595799E0,8.135596663E-2,1.483550072E-1,9.786943436E0,9.788405887E0
1.083002778E0,8.374879509E-2,1.411765367E-1,9.789336205E0,9.790712334E0
1.085409758E0,1.028913707E-1,1.435693651E-1,9.813264847E0,9.814854342E0
1.087816737E0,1.100698411E-1,1.555334777E-1,9.798908234E0,9.800760614E0
1.090223716E0,8.853443712E-2,1.507478207E-1,9.786943436E0,9.788504741E0
1.092630695E0,9.092725813E-2,1.459621787E-1,9.786943436E0,9.788454144E0
1.095037674E0,9.092725813E-2,1.411765367E-1,9.801301003E0,9.802739409E0
1.097444653E0,8.374879509E-2,1.651047617E-1,9.813264847E0,9.815010973E0
1.099851685E0,9.092725813E-2,1.459621787E-1,9.818050385E0,9.819556308E0
1.102258664E0,9.571290761E-2,1.555334777E-1,9.803693771E0,9.805394596E0
1.104665643E0,8.374879509E-2,1.435693651E-1,9.803693771E0,9.805102630E0
1.107072622E0,7.896314561E-2,1.555334777E-1,9.803693771E0,9.805245403E0
1.109479601E0,9.092725813E-2,1.603191197E-1,9.796515465E0,9.798249090E0
1.111886581E0,1.100698411E-1,1.674975902E-1,9.798908234E0,9.800957779E0
1.114293560E0,1.004985496E-1,1.698904037E-1,9.803693771E0,9.805680714E0
1.116700539E0,8.135596663E-2,1.507478207E-1,9.796515465E0,9.798013010E0
1.119107518E0,1.076770201E-1,1.435693651E-1,9.794121742E0,9.795765779E0
1.121514497E0,1.076770201E-1,1.507478207E-1,9.806086540E0,9.807836279E0
1.123921476E0,8.614161611E-2,1.459621787E-1,9.806086540E0,9.807551100E0
1.126328456E0,8.135596663E-2,1.459621787E-1,9.798908234E0,9.800332970E0
1.128735435E0,8.614161611E-2,1.435693651E-1,9.789336205E0,9.790767889E0
1.131142414E0,9.810572863E-2,1.531406492E-1,9.784550667E0,9.786240777E0
1.133549393E0,1.028913707E-1,1.363908947E-1,9.782157898E0,9.783649741E0
1.135956372E0,9.810572863E-2,1.387837082E-1,9.784550667E0,9.786026640E0
1.138363403E0,1.052841991E-1,1.579262912E-1,9.791728973E0,9.793568388E0
1.140770383E0,8.853443712E-2,1.483550072E-1,9.813264847E0,9.814785505E0
1.143177362E0,9.092725813E-2,1.435693651E-1,9.801301003E0,9.802774162E0
1.145584341E0,9.332008660E-2,1.531406492E-1,9.803693771E0,9.805333868E0
1.147991320E0,9.332008660E-2,1.603191197E-1,9.808479309E0,9.810233291E0
1.150398299E0,1.052841991E-1,1.555334777E-1,9.813264847E0,9.815062016E0
1.152805278E0,9.092725813E-2,1.651047617E-1,9.803693771E0,9.805505541E0
1.155212258E0,8.135596663E-2,1.507478207E-1,9.794121742E0,9.795619654E0
1.157619237E0,7.657032460E-2,1.483550072E-1,9.794121742E0,9.795544545E0
1.160026216E0,7.896314561E-2,1.555334777E-1,9.789336205E0,9.790890111E0
1.162433195E0,8.614161611E-2,1.722832322E-1,9.794121742E0,9.796015649E0
1.164840174E0,1.004985496E-1,1.603191197E-1,9.789336205E0,9.791164665E0
1.167247153E0,9.332008660E-2,1.483550072E-1,9.789336205E0,9.790905023E0
1.169654133E0,8.374879509E-2,1.435693651E-1,9.782157898E0,9.783569858E0
1.172061164E0,8.614161611E-2,1.555334777E-1,9.794121742E0,9.795735385E0
1.174468143E0,7.417750359E-2,1.722832322E-1,9.791728973E0,9.793525417E0
1.176875122E0,8.853443712E-2,1.483550072E-1,9.796515465E0,9.798038722E0
1.179282101E0,8.853443712E-2,1.435693651E-1,9.810872078E0,9.812321919E0
1.181689081E0,1.028913707E-1,1.387837082E-1,9.796515465E0,9.798038722E0
1.184096060E0,9.571290761E-2,1.339980662E-1,9.796515465E0,9.797899351E0
1.186503039E0,8.135596663E-2,1.435693651E-1,9.789336205E0,9.790726954E0
1.188910018E0,8.135596663E-2,1.627119333E-1,9.791728973E0,9.793418722E0
1.191316997E0,9.332008660E-2,1.674975902E-1,9.798908234E0,9.800783982E0
1.193723976E0,1.004985496E-1,1.579262912E-1,9.798908234E0,9.800696059E0
1.196130956E0,1.004985496E-1,1.363908947E-1,9.803693771E0,9.805157520E0
1.198537935E0,7.896314561E-2,1.459621787E-1,9.806086540E0,9.807490677E0
1.200944914E0,9.332008660E-2,1.531406492E-1,9.813264847E0,9.814903344E0
1.203351893E0,9.571290761E-2,1.579262912E-1,9.798908234E0,9.800648154E0
1.205758872E0,1.076770201E-1,1.459621787E-1,9.803693771E0,9.805371531E0
1.208165851E0,9.571290761E-2,1.603191197E-1,9.808479309E0,9.810256344E0
1.210572883E0,9.092725813E-2,1.507478207E-1,9.810872078E0,9.812451457E0
1.212979810E0,8.853443712E-2,1.579262912E-1,9.803693771E0,9.805365400E0
1.215386841E0,8.614161611E-2,1.674975902E-1,9.801301003E0,9.803110586E0
1.217793820E0,7.896314561E-2,1.579262912E-1,9.798908234E0,9.800498888E0
1.220200799E0,7.417750359E-2,1.507478207E-1,9.798908234E0,9.800348452E0
1.222607778E0,9.332008660E-2,1.483550072E-1,9.813264847E0,9.814829841E0
1.225014758E0,1.052841991E-1,1.483550072E-1,9.798908234E0,9.800596744E0
1.227421737E0,9.571290761E-2,1.555334777E-1,9.810872078E0,9.812571658E0
1.229828716E0,1.004985496E-1,1.603191197E-1,9.808479309E0,9.810304202E0
1.232235695E0,9.092725813E-2,1.651047617E-1,9.796515465E0,9.798328562E0
1.234642674E0,8.853443712E-2,1.531406492E-1,9.796515465E0,9.798112352E0
1.237049653E0,9.571290761E-2,1.603191197E-1,9.803693771E0,9.805471674E0
1.239456633E0,9.092725813E-2,1.459621787E-1,9.803693771E0,9.805201899E0
1.241863612E0,9.810572863E-2,1.483550072E-1,9.808479309E0,9.810091758E0
1.244270591E0,8.614161611E-2,1.459621787E-1,9.815657616E0,9.817120747E0
1.246677570E0,7.896314561E-2,1.387837082E-1,9.813264847E0,9.814563824E0
1.249084549E0,8.614161611E-2,1.555334777E-1,9.803693771E0,9.805305839E0
1.251491581E0,9.332008660E-2,1.507478207E-1,9.815657616E0,9.817258679E0
1.253898560E0,8.614161611E-2,1.507478207E-1,9.806086540E0,9.807623490E0
1.256305539E0,8.614161611E-2,1.579262912E-1,9.813264847E0,9.814913553E0
1.258712518E0,8.614161611E-2,1.674975902E-1,9.808479309E0,9.810287569E0
1.261119497E0,9.092725813E-2,1.603191197E-1,9.798908234E0,9.800641436E0
1.263526476E0,7.657032460E-2,1.531406492E-1,9.806086540E0,9.807581165E0
1.265933456E0,9.092725813E-2,1.698904037E-1,9.789336205E0,9.791232499E0
1.268340435E0,9.092725813E-2,1.555334777E-1,9.796515465E0,9.798171956E0
1.270747414E0,1.004985496E-1,1.722832322E-1,9.801301003E0,9.803330190E0
1.273154393E0,1.028913707E-1,1.627119333E-1,9.789336205E0,9.791228990E0
1.275561372E0,1.076770201E-1,1.698904037E-1,9.791728973E0,9.793794636E0
1.277968351E0,9.332008660E-2,1.555334777E-1,9.779765129E0,9.781446993E0
1.280375331E0,8.135596663E-2,1.459621787E-1,9.786943436E0,9.788369914E0
1.282782310E0,9.810572863E-2,1.507478207E-1,9.789336205E0,9.790988355E0
1.285189289E0,9.092725813E-2,1.459621787E-1,9.803693771E0,9.805201899E0
1.287596268E0,8.135596663E-2,1.555334777E-1,9.801301003E0,9.802872579E0
1.290003299E0,8.614161611E-2,1.387837082E-1,9.789336205E0,9.790698883E0
1.292410278E0,9.332008660E-2,1.507478207E-1,9.791728973E0,9.793333949E0
1.294817258E0,1.004985496E-1,1.531406492E-1,9.798908234E0,9.800620112E0
1.297224237E0,9.332008660E-2,1.459621787E-1,9.806086540E0,9.807616776E0
1.299631216E0,9.571290761E-2,1.531406492E-1,9.798908234E0,9.800572207E0
1.302038195E0,1.052841991E-1,1.531406492E-1,9.796515465E0,9.798278016E0
1.304445174E0,9.571290761E-2,1.746760458E-1,9.801301003E0,9.803324641E0
1.306852153E0,9.332008660E-2,1.794617027E-1,9.794121742E0,9.796210280E0
1.309259133E0,8.853443712E-2,1.603191197E-1,9.791728973E0,9.793441523E0
1.311666112E0,9.332008660E-2,1.627119333E-1,9.784550667E0,9.786348428E0
1.314073091E0,8.614161611E-2,1.627119333E-1,9.801301003E0,9.803029985E0
1.316480070E0,8.614161611E-2,1.459621787E-1,9.794121742E0,9.795588090E0
1.318887049E0,8.374879509E-2,1.411765367E-1,9.803693771E0,9.805067885E0
1.321294028E0,8.853443712E-2,1.722832322E-1,9.803693771E0,9.805607142E0
1.323701008E0,9.332008660E-2,1.651047617E-1,9.810872078E0,9.812704986E0
1.326107987E0,9.332008660E-2,1.579262912E-1,9.808479309E0,9.810194479E0
1.328514966E0,1.004985496E-1,1.483550072E-1,9.806086540E0,9.807723610E0
1.330921997E0,9.092725813E-2,1.435693651E-1,9.813264847E0,9.814736211E0
1.333328976E0,1.028913707E-1,1.579262912E-1,9.806086540E0,9.807897868E0
1.335735956E0,1.076770201E-1,1.698904037E-1,9.798908234E0,9.800972383E0
1.338142935E0,9.810572863E-2,1.627119333E-1,9.779765129E0,9.781610598E0
1.340549914E0,1.004985496E-1,1.483550072E-1,9.777372360E0,9.779014236E0
1.342956893E0,9.810572863E-2,1.674975902E-1,9.782157898E0,9.784083673E0
1.345363872E0,9.332008660E-2,1.579262912E-1,9.803693771E0,9.805409778E0
1.347770851E0,1.028913707E-1,1.627119333E-1,9.806086540E0,9.807976093E0
1.350177831E0,1.100698411E-1,1.603191197E-1,9.808479309E0,9.810406921E0
1.352584810E0,1.004985496E-1,1.603191197E-1,9.798908234E0,9.800734909E0
1.354991789E0,8.853443712E-2,1.483550072E-1,9.794121742E0,9.795645372E0
1.357398768E0,9.092725813E-2,1.459621787E-1,9.789336205E0,9.790846544E0
1.359805747E0,9.092725813E-2,1.531406492E-1,9.784550667E0,9.786171446E0
1.362212726E0,8.853443712E-2,1.411765367E-1,9.801301003E0,9.802717506E0
1.364619706E0,9.571290761E-2,1.459621787E-1,9.801301003E0,9.802855057E0
1.367026737E0,8.853443712E-2,1.459621787E-1,9.796515465E0,9.798002784E0
1.369433716E0,8.614161611E-2,1.603191197E-1,9.801301003E0,9.802990561E0
1.371840695E0,9.092725813E-2,1.555334777E-1,9.806086540E0,9.807741415E0
1.374247674E0,9.571290761E-2,1.579262912E-1,9.801301003E0,9.803040499E0
1.376654653E0,9.092725813E-2,1.579262912E-1,9.798908234E0,9.800602586E0
1.379061633E0,9.092725813E-2,1.579262912E-1,9.796515465E0,9.798210231E0
1.381468612E0,1.100698411E-1,1.579262912E-1,9.791728973E0,9.793621004E0
1.383875591E0,1.076770201E-1,1.483550072E-1,9.798908234E0,9.800622741E0
1.386282570E0,1.052841991E-1,1.435693651E-1,9.801301003E0,9.802917845E0
1.388689549E0,1.028913707E-1,1.531406492E-1,9.803693771E0,9.805429631E0
1.391096528E0,8.614161611E-2,1.459621787E-1,9.803693771E0,9.805158688E0
1.393503508E0,1.004985496E-1,1.339980662E-1,9.798908234E0,9.800339689E0
1.395910487E0,9.332008660E-2,1.411765367E-1,9.810872078E0,9.812331547E0
1.398317466E0,7.178468257E-2,1.579262912E-1,9.796515465E0,9.798051286E0
1.400724445E0,8.374879509E-2,1.555334777E-1,9.794121742E0,9.795714636E0
1.403131424E0,8.135596663E-2,1.555334777E-1,9.803693771E0,9.805264964E0
1.405538403E0,9.810572863E-2,1.435693651E-1,9.808479309E0,9.810020553E0
1.407945383E0,1.004985496E-1,1.292124242E-1,9.801301003E0,9.802667859E0
1.410352362E0,9.810572863E-2,1.459621787E-1,9.803693771E0,9.805271095E0
1.412759393E0,1.052841991E-1,1.459621787E-1,9.794121742E0,9.795775131E0
1.415166372E0,8.853443712E-2,1.459621787E-1,9.791728973E0,9.793217020E0
1.417573351E0,1.028913707E-1,1.483550072E-1,9.794121742E0,9.795785652E0
1.419980331E0,8.614161611E-2,1.698904037E-1,9.796515465E0,9.798367128E0
1.422387310E0,1.052841991E-1,1.531406492E-1,9.798908234E0,9.800670354E0
1.424794289E0,9.092725813E-2,1.555334777E-1,9.808479309E0,9.810133780E0
1.427201268E0,9.092725813E-2,1.483550072E-1,9.789336205E0,9.790882509E0
1.429608247E0,1.028913707E-1,1.555334777E-1,9.806086540E0,9.807859630E0
1.432015226E0,1.100698411E-1,1.722832322E-1,9.798908234E0,9.801040733E0
1.434422206E0,9.571290761E-2,1.555334777E-1,9.801301003E0,9.803002242E0
1.436829185E0,9.571290761E-2,1.459621787E-1,9.801301003E0,9.802855057E0
1.439236164E0,9.571290761E-2,1.483550072E-1,9.810872078E0,9.812460502E0
1.441643143E0,9.571290761E-2,1.483550072E-1,9.813264847E0,9.814852883E0
1.444050122E0,1.052841991E-1,1.531406492E-1,9.801301003E0,9.803062693E0
1.446457153E0,1.028913707E-1,1.459621787E-1,9.791728973E0,9.793357334E0
1.448864081E0,9.092725813E-2,1.531406492E-1,9.798908234E0,9.800526639E0
1.451271060E0,1.028913707E-1,1.698904037E-1,9.808479309E0,9.810490087E0
1.453678091E0,8.135596663E-2,1.627119333E-1,9.789336205E0,9.791026366E0
1.456085070E0,9.332008660E-2,1.627119333E-1,9.779765129E0,9.781563770E0
1.458492049E0,8.374879509E-2,1.459621787E-1,9.786943436E0,9.788390094E0
1.460899028E0,8.135596663E-2,1.411765367E-1,9.798908234E0,9.800262863E0
1.463306008E0,9.332008660E-2,1.435693651E-1,9.789336205E0,9.790833679E0
1.465712987E0,8.614161611E-2,1.698904037E-1,9.791728973E0,9.793581542E0
1.468119966E0,8.374879509E-2,1.722832322E-1,9.803693771E0,9.805565100E0
1.470526945E0,9.332008660E-2,1.651047617E-1,9.801301003E0,9.803135701E0
1.472933924E0,8.853443712E-2,1.483550072E-1,9.806086540E0,9.807608311E0
1.475340903E0,1.148554832E-1,1.651047617E-1,9.794121742E0,9.796186608E0
1.477747883E0,1.028913707E-1,1.674975902E-1,9.786943436E0,9.788917401E0
1.480154862E0,9.810572863E-2,1.722832322E-1,9.794121742E0,9.796128161E0
1.482561841E0,1.004985496E-1,1.579262912E-1,9.782157898E0,9.783948784E0
1.484968820E0,1.076770201E-1,1.579262912E-1,9.791728973E0,9.793594404E0
1.487375799E0,1.028913707E-1,1.674975902E-1,9.801301003E0,9.803272077E0
1.489782778E0,8.374879509E-2,1.603191197E-1,9.806086540E0,9.807754550E0
1.492189758E0,8.853443712E-2,1.483550072E-1,9.808479309E0,9.810000709E0
1.494596789E0,9.571290761E-2,1.316052526E-1,9.818050385E0,9.819398874E0
1.497003768E0,1.028913707E-1,1.459621787E-1,9.815657616E0,9.817282008E0
1.499410747E0,1.124626622E-1,1.435693651E-1,9.810872078E0,9.812566990E0
1.501817726E0,1.004985496E-1,1.459621787E-1,9.798908234E0,9.800510573E0
1.504224706E0,9.571290761E-2,1.555334777E-1,9.791728973E0,9.793431876E0
1.506631685E0,8.853443712E-2,1.603191197E-1,9.791728973E0,9.793441523E0
1.509038664E0,9.810572863E-2,1.531406492E-1,9.813264847E0,9.814950012E0
1.511445643E0,9.571290761E-2,1.579262912E-1,9.794121742E0,9.795862513E0
1.513852622E0,7.896314561E-2,1.651047617E-1,9.803693771E0,9.805401895E0
1.516259601E0,8.853443712E-2,1.555334777E-1,9.813264847E0,9.814896635E0
1.518666581E0,9.810572863E-2,1.651047617E-1,9.815657616E0,9.817536287E0
1.521073560E0,1.124626622E-1,1.507478207E-1,9.808479309E0,9.810282316E0
1.523480539E0,9.810572863E-2,1.531406492E-1,9.782157898E0,9.783848421E0
1.525887518E0,9.332008660E-2,1.603191197E-1,9.798908234E0,9.800663928E0
1.528294497E0,7.417750359E-2,1.651047617E-1,9.808479309E0,9.810149247E0
1.530701476E0,9.332008660E-2,1.531406492E-1,9.791728973E0,9.793371074E0
1.533108456E0,7.896314561E-2,1.483550072E-1,9.808479309E0,9.809918998E0
1.535515435E0,9.571290761E-2,1.387837082E-1,9.798908234E0,9.800358384E0
1.537922414E0,1.052841991E-1,1.483550072E-1,9.801301003E0,9.802989101E0
1.540329445E0,1.172483116E-1,1.674975902E-1,9.796515465E0,9.798648777E0
1.542736424E0,1.100698411E-1,1.627119333E-1,9.794121742E0,9.796091631E0
1.545143403E0,9.571290761E-2,1.579262912E-1,9.798908234E0,9.800648154E0
1.547550383E0,9.332008660E-2,1.483550072E-1,9.794121742E0,9.795689794E0
1.549957362E0,8.135596663E-2,1.435693651E-1,9.803693771E0,9.805082484E0
1.552364341E0,9.332008660E-2,1.531406492E-1,9.801301003E0,9.802941499E0
1.554771320E0,9.571290761E-2,1.507478207E-1,9.791728973E0,9.793357042E0
1.557178299E0,8.614161611E-2,1.531406492E-1,9.791728973E0,9.793305301E0
1.559585278E0,1.028913707E-1,1.531406492E-1,9.801301003E0,9.803037286E0
1.561992258E0,1.052841991E-1,1.531406492E-1,9.791728973E0,9.793492386E0
1.564399237E0,1.028913707E-1,1.603191197E-1,9.806086540E0,9.807936689E0
1.566806216E0,8.374879509E-2,1.651047617E-1,9.796515465E0,9.798264576E0
1.569213195E0,7.896314561E-2,1.531406492E-1,9.801301003E0,9.802815339E0
1.571620174E0,9.092725813E-2,1.483550072E-1,9.806086540E0,9.807630204E0
1.574027153E0,9.092725813E-2,1.531406492E-1,9.806086540E0,9.807703761E0
1.576434133E0,8.853443712E-2,1.435693651E-1,9.794121742E0,9.795574062E0
1.578841112E0,9.332008660E-2,1.363908947E-1,9.791728973E0,9.793123475E0
1.581248143E0,1.076770201E-1,1.507478207E-1,9.794121742E0,9.795873618E0
1.583655122E0,9.571290761E-2,1.507478207E-1,9.791728973E0,9.793357042E0
1.586062101E0,8.614161611E-2,1.603191197E-1,9.808479309E0,9.810167631E0
1.588469081E0,9.571290761E-2,1.387837082E-1,9.801301003E0,9.802750799E0
1.590876060E0,1.052841991E-1,1.435693651E-1,9.796515465E0,9.798133097E0
1.593283039E0,9.571290761E-2,1.627119333E-1,9.801301003E0,9.803118763E0
1.595690018E0,8.135596663E-2,1.698904037E-1,9.798908234E0,9.800718551E0
1.598096997E0,9.092725813E-2,1.674975902E-1,9.796515465E0,9.798369174E0
1.600503976E0,9.092725813E-2,1.603191197E-1,9.794121742E0,9.795855792E0
1.602910956E0,8.614161611E-2,1.603191197E-1,9.798908234E0,9.800598205E0
1.605317935E0,8.374879509E-2,1.603191197E-1,9.796515465E0,9.798185104E0
1.607724914E0,8.853443712E-2,1.531406492E-1,9.803693771E0,9.805289489E0
1.610131893E0,9.092725813E-2,1.579262912E-1,9.798908234E0,9.800602586E0
1.612538872E0,1.004985496E-1,1.579262912E-1,9.798908234E0,9.800696059E0
1.614945851E0,1.028913707E-1,1.435693651E-1,9.806086540E0,9.807677199E0
1.617352831E0,9.571290761E-2,1.507478207E-1,9.794121742E0,9.795749413E0
1.619759810E0,8.135596663E-2,1.483550072E-1,9.801301003E0,9.802761312E0
1.622166841E0,1.004985496E-1,1.531406492E-1,9.794121742E0,9.795834458E0
1.624573820E0,1.004985496E-1,1.411765367E-1,9.798908234E0,9.800440467E0
1.626980799E0,1.028913707E-1,1.244267747E-1,9.794121742E0,9.795452484E0
1.629387778E0,7.178468257E-2,1.531406492E-1,9.789336205E0,9.790797129E0
1.631794758E0,9.092725813E-2,1.507478207E-1,9.786943436E0,9.788526676E0
1.634201737E0,8.614161611E-2,1.483550072E-1,9.794121742E0,9.795624038E0
1.636608716E0,7.896314561E-2,1.531406492E-1,9.815657616E0,9.817169738E0
1.639015695E0,7.657032460E-2,1.411765367E-1,9.796515465E0,9.797831856E0
1.641422674E0,8.135596663E-2,1.339980662E-1,9.801301003E0,9.802554545E0
1.643829653E0,8.853443712E-2,1.459621787E-1,9.813264847E0,9.814749628E0
1.646236633E0,9.332008660E-2,1.387837082E-1,9.796515465E0,9.797942887E0
1.648643612E0,8.853443712E-2,1.627119333E-1,9.808479309E0,9.810228329E0
1.651050591E0,9.571290761E-2,1.531406492E-1,9.801301003E0,9.802964570E0
1.653457570E0,1.100698411E-1,1.603191197E-1,9.801301003E0,9.803230025E0
1.655864549E0,1.004985496E-1,1.627119333E-1,9.808479309E0,9.810343597E0
1.658271528E0,8.614161611E-2,1.674975902E-1,9.803693771E0,9.805502913E0
1.660678508E0,9.332008660E-2,1.555334777E-1,9.806086540E0,9.807763891E0
1.663085487E0,9.571290761E-2,1.674975902E-1,9.808479309E0,9.810376280E0
1.665492518E0,9.092725813E-2,1.459621787E-1,9.803693771E0,9.805201899E0
1.667899445E0,9.571290761E-2,1.459621787E-1,9.796515465E0,9.798070278E0
1.670306476E0,8.614161611E-2,1.531406492E-1,9.803693771E0,9.805268176E0
1.672713456E0,7.896314561E-2,1.579262912E-1,9.806086540E0,9.807676031E0
1.675120435E0,9.332008660E-2,1.651047617E-1,9.810872078E0,9.812704986E0
1.677527414E0,1.004985496E-1,1.603191197E-1,9.823135376E0,9.824957547E0
1.679934393E0,9.332008660E-2,1.674975902E-1,9.803693771E0,9.805568604E0
1.682341372E0,9.810572863E-2,1.627119333E-1,9.808479309E0,9.810319376E0
1.684748351E0,9.332008660E-2,1.674975902E-1,9.801301003E0,9.803176293E0
1.687155331E0,9.810572863E-2,1.579262912E-1,9.789336205E0,9.791101510E0
1.689562310E0,1.004985496E-1,1.627119333E-1,9.794121742E0,9.795988762E0
1.691969289E0,8.374879509E-2,1.507478207E-1,9.796515465E0,9.798033171E0
1.694376268E0,8.853443712E-2,1.555334777E-1,9.806086540E0,9.807719523E0
1.696783247E0,7.657032460E-2,1.555334777E-1,9.794121742E0,9.795655893E0
1.699190226E0,6.939185411E-2,1.579262912E-1,9.794121742E0,9.795640696E0
1.701597206E0,8.135596663E-2,1.339980662E-1,9.786943436E0,9.788198817E0
1.704004185E0,9.571290761E-2,1.435693651E-1,9.786943436E0,9.788464381E0
1.706411164E0,9.092725813E-2,1.627119333E-1,9.786943436E0,9.788718238E0
1.708818143E0,9.810572863E-2,1.651047617E-1,9.806086540E0,9.807967045E0
1.711225122E0,9.571290761E-2,1.698904037E-1,9.806086540E0,9.808025130E0
1.713632101E0,8.614161611E-2,1.722832322E-1,9.801301003E0,9.803193522E0
1.716039133E0,8.374879509E-2,1.722832322E-1,9.801301003E0,9.803172788E0
1.718446112E0,8.614161611E-2,1.555334777E-1,9.786943436E0,9.788558262E0
1.720853091E0,1.028913707E-1,1.387837082E-1,9.796515465E0,9.798038722E0
1.723260070E0,1.004985496E-1,1.411765367E-1,9.803693771E0,9.805225257E0
1.725667049E0,8.135596663E-2,1.363908947E-1,9.796515465E0,9.797802637E0
1.728074028E0,9.092725813E-2,1.459621787E-1,9.791728973E0,9.793238944E0
1.730481008E0,8.614161611E-2,1.555334777E-1,9.798908234E0,9.800521089E0
1.732887987E0,8.374879509E-2,1.579262912E-1,9.794121742E0,9.795752920E0
1.735294966E0,9.332008660E-2,1.603191197E-1,9.803693771E0,9.805448609E0
1.737701945E0,9.092725813E-2,1.603191197E-1,9.806086540E0,9.807818474E0
1.740108924E0,8.374879509E-2,1.531406492E-1,9.808479309E0,9.810032226E0
1.742515903E0,1.028913707E-1,1.555334777E-1,9.803693771E0,9.805467294E0
1.744922883E0,1.004985496E-1,1.555334777E-1,9.794121742E0,9.795872157E0
1.747329862E0,9.571290761E-2,1.483550072E-1,9.806086540E0,9.807675739E0
1.749736841E0,8.853443712E-2,1.531406492E-1,9.808479309E0,9.810074249E0
1.752143820E0,9.092725813E-2,1.555334777E-1,9.810872078E0,9.812526146E0
1.754550799E0,1.004985496E-1,1.698904037E-1,9.815657616E0,9.817642137E0
1.756957778E0,9.810572863E-2,1.627119333E-1,9.806086540E0,9.807927056E0
1.759364758E0,8.614161611E-2,1.531406492E-1,9.798908234E0,9.800483407E0
1.761771789E0,1.028913707E-1,1.698904037E-1,9.808479309E0,9.810490087E0
1.764178716E0,1.124626622E-1,1.794617027E-1,9.806086540E0,9.808373341E0
1.766585747E0,1.172483116E-1,1.603191197E-1,9.791728973E0,9.793743190E0
1.768992726E0,8.853443712E-2,1.531406492E-1,9.801301003E0,9.802897110E0
1.771399706E0,8.135596663E-2,1.555334777E-1,9.791728973E0,9.793302086E0
1.773806685E0,9.332008660E-2,1.507478207E-1,9.806086540E0,9.807689166E0
1.776213664E0,9.332008660E-2,1.531406492E-1,9.791728973E0,9.793371074E0
1.778620643E0,9.810572863E-2,1.483550072E-1,9.796515465E0,9.798129882E0
1.781027622E0,8.614161611E-2,1.507478207E-1,9.798908234E0,9.800446309E0
1.783434601E0,1.004985496E-1,1.507478207E-1,9.796515465E0,9.798190655E0
1.785841581E0,1.028913707E-1,1.603191197E-1,9.789336205E0,9.791189518E0
1.788248560E0,1.052841991E-1,1.531406492E-1,9.801301003E0,9.803062693E0
1.790655539E0,1.028913707E-1,1.483550072E-1,9.808479309E0,9.810140784E0
1.793062518E0,8.614161611E-2,1.579262912E-1,9.801301003E0,9.802951720E0
1.795469497E0,1.052841991E-1,1.555334777E-1,9.798908234E0,9.800708035E0
1.797876476E0,9.092725813E-2,1.435693651E-1,9.815657616E0,9.817128621E0
1.800283456E0,9.810572863E-2,1.507478207E-1,9.806086540E0,9.807735869E0
1.802690435E0,9.810572863E-2,1.651047617E-1,9.789336205E0,9.791219926E0
1.805097414E0,9.810572863E-2,1.555334777E-1,9.798908234E0,9.800633549E0
1.807504393E0,8.853443712E-2,1.603191197E-1,9.789336205E0,9.791049172E0
1.809911372E0,7.896314561E-2,1.651047617E-1,9.796515465E0,9.798224840E0
1.812318351E0,7.896314561E-2,1.387837082E-1,9.786943436E0,9.788245906E0
1.814725383E0,8.374879509E-2,1.435693651E-1,9.796515465E0,9.797925356E0
1.817132362E0,8.135596663E-2,1.579262912E-1,9.796515465E0,9.798126084E0
1.819539341E0,8.374879509E-2,1.627119333E-1,9.794121742E0,9.795831243E0
1.821946320E0,8.614161611E-2,1.555334777E-1,9.803693771E0,9.805305839E0
1.824353299E0,8.374879509E-2,1.339980662E-1,9.823135376E0,9.824406239E0
1.826760278E0,1.028913707E-1,1.387837082E-1,9.815657616E0,9.817177903E0
1.829167258E0,1.004985496E-1,1.483550072E-1,9.810872078E0,9.812508349E0
1.831574237E0,1.052841991E-1,1.603191197E-1,9.813264847E0,9.815139018E0
1.833981216E0,9.332008660E-2,1.507478207E-1,9.810872078E0,9.812473922E0
1.836388195E0,1.004985496E-1,1.603191197E-1,9.798908234E0,9.800734909E0
1.838795174E0,8.614161611E-2,1.627119333E-1,9.796515465E0,9.798245292E0
1.841202153E0,7.657032460E-2,1.507478207E-1,9.803693771E0,9.805151681E0
1.843609133E0,7.417750359E-2,1.435693651E-1,9.798908234E0,9.800240662E0
1.846016112E0,7.178468257E-2,1.531406492E-1,9.801301003E0,9.802760144E0
1.848423091E0,8.374879509E-2,1.794617027E-1,9.798908234E0,9.800909291E0
1.850830070E0,9.571290761E-2,1.722832322E-1,9.801301003E0,9.803282298E0
1.853237049E0,8.374879509E-2,1.555334777E-1,9.798908234E0,9.800500349E0
1.855644028E0,9.571290761E-2,1.674975902E-1,9.801301003E0,9.803199363E0
1.858051008E0,9.810572863E-2,1.579262912E-1,9.784550667E0,9.786316835E0
1.860457987E0,8.614161611E-2,1.579262912E-1,9.798908234E0,9.800559355E0
1.862865018E0,6.221338734E-2,1.555334777E-1,9.801301003E0,9.802732400E0
1.865271997E0,9.092725813E-2,1.651047617E-1,9.798908234E0,9.800720888E0
1.867678976E0,8.853443712E-2,1.579262912E-1,9.784550667E0,9.786225565E0
1.870085956E0,1.028913707E-1,1.507478207E-1,9.789336205E0,9.791037476E0
1.872492935E0,1.004985496E-1,1.507478207E-1,9.803693771E0,9.805367735E0
1.874899914E0,9.332008660E-2,1.292124242E-1,9.801301003E0,9.802596892E0
1.877306893E0,1.004985496E-1,1.459621787E-1,9.791728973E0,9.793332487E0
1.879713872E0,9.332008660E-2,1.531406492E-1,9.791728973E0,9.793371074E0
1.882120851E0,9.810572863E-2,1.627119333E-1,9.789336205E0,9.791179869E0
1.884527831E0,8.374879509E-2,1.483550072E-1,9.789336205E0,9.790818474E0
1.886934810E0,1.028913707E-1,1.507478207E-1,9.798908234E0,9.800607844E0
1.889341789E0,1.052841991E-1,1.531406492E-1,9.801301003E0,9.803062693E0
1.891748768E0,8.853443712E-2,1.531406492E-1,9.801301003E0,9.802897110E0
1.894155747E0,8.853443712E-2,1.411765367E-1,9.806086540E0,9.807502353E0
1.896562726E0,9.332008660E-2,1.603191197E-1,9.810872078E0,9.812625632E0
1.898969706E0,9.092725813E-2,1.531406492E-1,9.803693771E0,9.805311387E0
1.901376685E0,8.853443712E-2,1.579262912E-1,9.806086540E0,9.807757761E0
1.903783664E0,9.810572863E-2,1.531406492E-1,9.810872078E0,9.812557654E0
1.906190643E0,9.332008660E-2,1.387837082E-1,9.815657616E0,9.817082254E0
1.908597674E0,8.135596663E-2,1.292124242E-1,9.796515465E0,9.797705338E0
1.911004601E0,8.135596663E-2,1.603191197E-1,9.806086540E0,9.807734410E0
1.913411633E0,9.092725813E-2,1.651047617E-1,9.798908234E0,9.800720888E0
1.915818612E0,9.571290761E-2,1.531406492E-1,9.803693771E0,9.805356933E0
1.918225591E0,8.853443712E-2,1.698904037E-1,9.801301003E0,9.803173080E0
1.920632570E0,8.853443712E-2,1.651047617E-1,9.789336205E0,9.791128702E0
1.923039549E0,9.571290761E-2,1.603191197E-1,9.798908234E0,9.800687004E0
1.925446528E0,8.614161611E-2,1.579262912E-1,9.808479309E0,9.810128819E0
1.927853508E0,8.614161611E-2,1.579262912E-1,9.803693771E0,9.805344086E0
1.930260487E0,9.571290761E-2,1.555334777E-1,9.813264847E0,9.814964013E0
1.932667466E0,1.052841991E-1,1.603191197E-1,9.813264847E0,9.815139018E0
1.935074445E0,8.614161611E-2,1.435693651E-1,9.801301003E0,9.802730940E0
1.937481424E0,8.614161611E-2,1.459621787E-1,9.786943436E0,9.788410859E0
1.939888403E0,9.092725813E-2,1.698904037E-1,9.794121742E0,9.796017110E0
1.942295383E0,9.332008660E-2,1.531406492E-1,9.815657616E0,9.817295713E0
1.944702362E0,8.374879509E-2,1.483550072E-1,9.801301003E0,9.802781463E0
1.947109341E0,8.374879509E-2,1.411765367E-1,9.803693771E0,9.805067885E0
1.949516320E0,7.417750359E-2,1.579262912E-1,9.791728973E0,9.793283377E0
1.951923299E0,1.028913707E-1,1.555334777E-1,9.786943436E0,9.788719993E0
1.954330278E0,1.124626622E-1,1.459621787E-1,9.789336205E0,9.791070224E0
1.956737258E0,9.092725813E-2,1.507478207E-1,9.796515465E0,9.798097158E0
1.959144237E0,6.939185411E-2,1.483550072E-1,9.806086540E0,9.807454189E0
1.961551216E0,7.178468257E-2,1.674975902E-1,9.801301003E0,9.802994942E0
1.963958247E0,8.614161611E-2,1.555334777E-1,9.803693771E0,9.805305839E0
1.966365174E0,8.614161611E-2,1.603191197E-1,9.796515465E0,9.798205849E0
1.968772206E0,9.810572863E-2,1.579262912E-1,9.791728973E0,9.793493847E0
1.971179185E0,9.810572863E-2,1.531406492E-1,9.798908234E0,9.800595868E0
1.973586164E0,9.332008660E-2,1.651047617E-1,9.801301003E0,9.803135701E0
1.975993143E0,9.092725813E-2,1.555334777E-1,9.808479309E0,9.810133780E0
1.978400122E0,8.374879509E-2,1.507478207E-1,9.798908234E0,9.800425569E0
1.980807101E0,8.374879509E-2,1.459621787E-1,9.803693771E0,9.805137958E0
1.983214081E0,9.092725813E-2,1.507478207E-1,9.798908234E0,9.800489541E0
1.985621060E0,1.004985496E-1,1.459621787E-1,9.801301003E0,9.802902951E0
1.988028039E0,7.657032460E-2,1.627119333E-1,9.806086540E0,9.807735285E0
1.990435018E0,8.614161611E-2,1.651047617E-1,9.798908234E0,9.800677657E0
1.992841997E0,9.810572863E-2,1.603191197E-1,9.818050385E0,9.819849302E0
1.995248976E0,1.100698411E-1,1.579262912E-1,9.810872078E0,9.812760418E0
1.997655956E0,9.810572863E-2,1.579262912E-1,9.798908234E0,9.800671815E0
2.000062935E0,9.810572863E-2,1.603191197E-1,9.808479309E0,9.810279981E0
2.002469914E0,8.853443712E-2,1.459621787E-1,9.794121742E0,9.795609425E0
2.004876893E0,9.332008660E-2,1.483550072E-1,9.810872078E0,9.812437453E0
2.007283872E0,1.052841991E-1,1.483550072E-1,9.806086540E0,9.807773815E0
2.009690851E0,9.332008660E-2,1.435693651E-1,9.806086540E0,9.807581457E0
2.012097831E0,1.028913707E-1,1.531406492E-1,9.791728973E0,9.793466954E0
2.014504810E0,9.810572863E-2,1.603191197E-1,9.801301003E0,9.803102993E0
2.016911789E0,8.374879509E-2,1.579262912E-1,9.796515465E0,9.798146244E0
2.019318820E0,9.092725813E-2,1.459621787E-1,9.813264847E0,9.814771504E0
2.021725799E0,9.092725813E-2,1.507478207E-1,9.810872078E0,9.812451457E0
2.024132778E0,8.614161611E-2,1.555334777E-1,9.808479309E0,9.810090591E0
2.026539758E0,8.853443712E-2,1.579262912E-1,9.818050385E0,9.819719569E0
2.028946737E0,8.135596663E-2,1.579262912E-1,9.808479309E0,9.810087964E0
2.031353716E0,1.028913707E-1,1.435693651E-1,9.794121742E0,9.795714343E0
2.033760695E0,9.332008660E-2,1.651047617E-1,9.794121742E0,9.795957785E0
2.036167674E0,1.052841991E-1,1.651047617E-1,9.801301003E0,9.803256892E0
2.038574653E0,8.853443712E-2,1.651047617E-1,9.798908234E0,9.800698980E0
2.040981633E0,8.135596663E-2,1.531406492E-1,9.803693771E0,9.805227300E0
2.043388612E0,9.571290761E-2,1.603191197E-1,9.808479309E0,9.810256344E0
2.045795591E0,9.571290761E-2,1.627119333E-1,9.796515465E0,9.798334113E0
2.048202570E0,8.853443712E-2,1.651047617E-1,9.803693771E0,9.805483644E0
2.050609549E0,8.853443712E-2,1.531406492E-1,9.803693771E0,9.805289489E0
2.053016528E0,8.614161611E-2,1.651047617E-1,9.798908234E0,9.800677657E0
2.055423508E0,8.614161611E-2,1.603191197E-1,9.796515465E0,9.798205849E0
2.057830487E0,1.148554832E-1,1.579262912E-1,9.810872078E0,9.812815265E0
2.060237466E0,1.076770201E-1,1.555334777E-1,9.813264847E0,9.815087975E0
2.062644445E0,9.092725813E-2,1.579262912E-1,9.801301003E0,9.802994941E0
2.065051424E0,9.571290761E-2,1.387837082E-1,9.798908234E0,9.800358384E0
2.067458403E0,9.092725813E-2,1.579262912E-1,9.815657616E0,9.817349077E0
2.069865383E0,9.810572863E-2,1.674975902E-1,9.796515465E0,9.798438418E0
2.072272362E0,9.810572863E-2,1.603191197E-1,9.796515465E0,9.798318336E0
2.074679341E0,8.614161611E-2,1.483550072E-1,9.796515465E0,9.798017393E0
2.077086320E0,1.004985496E-1,1.651047617E-1,9.794121742E0,9.796028800E0
2.079493351E0,9.810572863E-2,1.698904037E-1,9.801301003E0,9.803264192E0
2.081900331E0,1.028913707E-1,1.651047617E-1,9.810872078E0,9.812800678E0
2.084307310E0,7.657032460E-2,1.507478207E-1,9.803693771E0,9.805151681E0
2.086714289E0,6.699903309E-2,1.459621787E-1,9.810872078E0,9.812186543E0
2.089121268E0,9.092725813E-2,1.483550072E-1,9.806086540E0,9.807630204E0
2.091528247E0,9.571290761E-2,1.435693651E-1,9.806086540E0,9.807604517E0
2.093935226E0,1.004985496E-1,1.316052526E-1,9.803693771E0,9.805092119E0
2.096342206E0,9.092725813E-2,1.531406492E-1,9.803693771E0,9.805311387E0
2.098749185E0,9.571290761E-2,1.531406492E-1,9.808479309E0,9.810141659E0
2.101156164E0,8.853443712E-2,1.627119333E-1,9.818050385E0,9.819797700E0
2.103563143E0,9.332008660E-2,1.459621787E-1,9.803693771E0,9.805224381E0
2.105970122E0,9.332008660E-2,1.387837082E-1,9.786943436E0,9.788372253E0
2.108377101E0,1.004985496E-1,1.435693651E-1,9.803693771E0,9.805260001E0
2.110784081E0,8.614161611E-2,1.531406492E-1,9.810872078E0,9.812445331E0
2.113191060E0,9.092725813E-2,1.555334777E-1,9.794121742E0,9.795778638E0
2.115598039E0,9.092725813E-2,1.531406492E-1,9.798908234E0,9.800526639E0
2.118005018E0,9.332008660E-2,1.555334777E-1,9.801301003E0,9.802979172E0
2.120411997E0,8.374879509E-2,1.603191197E-1,9.810872078E0,9.812539274E0
2.122818976E0,7.178468257E-2,1.555334777E-1,9.818050385E0,9.819544646E0
2.125225956E0,7.417750359E-2,1.555334777E-1,9.820742607E0,9.822254238E0
2.127632935E0,7.896314561E-2,1.674975902E-1,9.803693771E0,9.805442478E0
2.130039914E0,1.076770201E-1,1.674975902E-1,9.810872078E0,9.812892576E0
2.132446945E0,1.004985496E-1,1.435693651E-1,9.801301003E0,9.802867614E0
2.134853924E0,9.332008660E-2,1.459621787E-1,9.798908234E0,9.800439591E0
2.137260903E0,9.092725813E-2,1.507478207E-1,9.810872078E0,9.812451457E0
2.139667883E0,8.374879509E-2,1.435693651E-1,9.808479309E0,9.809887480E0
2.142074862E0,9.092725813E-2,1.339980662E-1,9.796515465E0,9.797853770E0
2.144481841E0,8.135596663E-2,1.411765367E-1,9.808479309E0,9.809832617E0
2.146888820E0,8.135596663E-2,1.459621787E-1,9.803693771E0,9.805117812E0
2.149295799E0,9.332008660E-2,1.555334777E-1,9.796515465E0,9.798194454E0
2.151702778E0,9.332008660E-2,1.627119333E-1,9.798908234E0,9.800703362E0
2.154109758E0,9.571290761E-2,1.579262912E-1,9.803693771E0,9.805432843E0
2.156516737E0,9.810572863E-2,1.483550072E-1,9.801301003E0,9.802914632E0
2.158923716E0,8.853443712E-2,1.603191197E-1,9.801301003E0,9.803011879E0
2.161330695E0,8.614161611E-2,1.531406492E-1,9.815657616E0,9.817230101E0
2.163737674E0,9.571290761E-2,1.507478207E-1,9.801301003E0,9.802927482E0
2.166144653E0,1.004985496E-1,1.674975902E-1,9.820742607E0,9.822685007E0
2.168551633E0,9.571290761E-2,1.531406492E-1,9.818050385E0,9.819711114E0
2.170958612E0,8.374879509E-2,1.459621787E-1,9.798908234E0,9.800353126E0
2.173365591E0,8.614161611E-2,1.411765367E-1,9.796515465E0,9.797911331E0
2.175772570E0,8.614161611E-2,1.411765367E-1,9.794121742E0,9.795517949E0
2.178179549E0,9.092725813E-2,1.531406492E-1,9.798908234E0,9.800526639E0
2.180586528E0,9.092725813E-2,1.579262912E-1,9.806086540E0,9.807779653E0
2.182993508E0,8.374879509E-2,1.579262912E-1,9.803693771E0,9.805323357E0
2.185400487E0,7.896314561E-2,1.651047617E-1,9.798908234E0,9.800617191E0
2.187807466E0,9.332008660E-2,1.651047617E-1,9.794121742E0,9.795957785E0
2.190214445E0,1.028913707E-1,1.555334777E-1,9.808479309E0,9.810251967E0
2.192621424E0,1.076770201E-1,1.674975902E-1,9.791728973E0,9.793753421E0
2.195028456E0,9.810572863E-2,1.603191197E-1,9.791728973E0,9.793532725E0
2.197435383E0,9.571290761E-2,1.483550072E-1,9.806086540E0,9.807675739E0
2.199842414E0,1.004985496E-1,1.603191197E-1,9.810872078E0,9.812696526E0
2.202249393E0,1.148554832E-1,1.555334777E-1,9.794121742E0,9.796029969E0
2.204656372E0,8.853443712E-2,1.627119333E-1,9.789336205E0,9.791088645E0
2.207063351E0,7.417750359E-2,1.603191197E-1,9.789336205E0,9.790929877E0
2.209470331E0,9.571290761E-2,1.579262912E-1,9.791728973E0,9.793470170E0
2.211877310E0,8.853443712E-2,1.603191197E-1,9.796515465E0,9.798227177E0
2.214284289E0,9.092725813E-2,1.507478207E-1,9.794121742E0,9.795703822E0
2.216691268E0,8.853443712E-2,1.555334777E-1,9.789336205E0,9.790971981E0
2.219098247E0,7.657032460E-2,1.531406492E-1,9.803693771E0,9.805188761E0
2.221505226E0,9.571290761E-2,1.387837082E-1,9.810872078E0,9.812320460E0
2.223912206E0,8.614161611E-2,1.555334777E-1,9.803693771E0,9.805305839E0
2.226319185E0,8.374879509E-2,1.603191197E-1,9.803693771E0,9.805362188E0
2.228726164E0,8.614161611E-2,1.627119333E-1,9.798908234E0,9.800637639E0
2.231133143E0,6.699903309E-2,1.627119333E-1,9.803693771E0,9.805272847E0
2.233540122E0,8.135596663E-2,1.316052526E-1,9.801301003E0,9.802522128E0
2.235947101E0,9.092725813E-2,1.555334777E-1,9.796515465E0,9.798171956E0
2.238354081E0,9.092725813E-2,1.435693651E-1,9.794121742E0,9.795595981E0
2.240761060E0,9.571290761E-2,1.483550072E-1,9.806086540E0,9.807675739E0
2.243168039E0,1.004985496E-1,1.387837082E-1,9.803693771E0,9.805191096E0
2.245575018E0,9.092725813E-2,1.531406492E-1,9.786943436E0,9.788563819E0
2.247981997E0,9.571290761E-2,1.411765367E-1,9.794121742E0,9.795606795E0
2.250388976E0,9.092725813E-2,1.435693651E-1,9.796515465E0,9.797989344E0
2.252795956E0,9.332008660E-2,1.555334777E-1,9.789336205E0,9.791016425E0
2.255202935E0,8.614161611E-2,1.531406492E-1,9.796515465E0,9.798091023E0
2.257609966E0,9.571290761E-2,1.507478207E-1,9.796515465E0,9.798142738E0
2.260016945E0,1.076770201E-1,1.507478207E-1,9.798908234E0,9.800659254E0
2.262423924E0,8.614161611E-2,1.459621787E-1,9.791728973E0,9.793195680E0
2.264830903E0,9.332008660E-2,1.674975902E-1,9.801301003E0,9.803176293E0
2.267237883E0,9.810572863E-2,1.674975902E-1,9.798908234E0,9.800830717E0
2.269644862E0,1.004985496E-1,1.770688742E-1,9.801301003E0,9.803415460E0
2.272051841E0,8.374879509E-2,1.531406492E-1,9.794121742E0,9.795676935E0
2.274458820E0,7.896314561E-2,1.555334777E-1,9.803693771E0,9.805245403E0
2.276865799E0,8.614161611E-2,1.411765367E-1,9.808479309E0,9.809873473E0
2.279272778E0,9.092725813E-2,1.435693651E-1,9.798908234E0,9.800381753E0
2.281679758E0,1.004985496E-1,1.579262912E-1,9.801301003E0,9.803088392E0
2.284086737E0,9.332008660E-2,1.627119333E-1,9.803693771E0,9.805488023E0
2.286493716E0,1.004985496E-1,1.387837082E-1,9.808479309E0,9.809975904E0
2.288900695E0,9.571290761E-2,1.507478207E-1,9.806086540E0,9.807712226E0
2.291307674E0,9.571290761E-2,1.555334777E-1,9.801301003E0,9.803002242E0
2.293714653E0,9.092725813E-2,1.531406492E-1,9.798908234E0,9.800526639E0
2.296121633E0,8.614161611E-2,1.603191197E-1,9.791728973E0,9.793420183E0
2.298528612E0,8.135596663E-2,1.579262912E-1,9.808479309E0,9.810087964E0
2.300935591E0,9.092725813E-2,1.531406492E-1,9.813264847E0,9.814880885E0
2.303342570E0,9.332008660E-2,1.674975902E-1,9.794121742E0,9.795998407E0
2.305749549E0,8.374879509E-2,1.651047617E-1,9.789336205E0,9.791086598E0
2.308156528E0,1.148554832E-1,1.531406492E-1,9.794121742E0,9.795992269E0
2.310563508E0,1.076770201E-1,1.651047617E-1,9.806086540E0,9.808067453E0
2.312970487E0,9.571290761E-2,1.603191197E-1,9.808479309E0,9.810256344E0
2.315377466E0,9.571290761E-2,1.579262912E-1,9.810872078E0,9.812609877E0
2.317784445E0,8.614161611E-2,1.555334777E-1,9.806086540E0,9.807698215E0
2.320191424E0,9.092725813E-2,1.507478207E-1,9.798908234E0,9.800489541E0
2.322598456E0,9.092725813E-2,1.579262912E-1,9.798908234E0,9.800602586E0
2.325005435E0,8.374879509E-2,1.507478207E-1,9.791728973E0,9.793247421E0
2.327412414E0,1.004985496E-1,1.603191197E-1,9.806086540E0,9.807911878E0
2.329819393E0,9.571290761E-2,1.555334777E-1,9.810872078E0,9.812571658E0
2.332226372E0,8.853443712E-2,1.507478207E-1,9.803693771E0,9.805252410E0
2.334633351E0,8.135596663E-2,1.483550072E-1,9.798908234E0,9.800368900E0
2.337040331E0,8.374879509E-2,1.555334777E-1,9.798908234E0,9.800500349E0
2.339447310E0,8.614161611E-2,1.579262912E-1,9.794121742E0,9.795773670E0
2.341854289E0,9.332008660E-2,1.507478207E-1,9.803693771E0,9.805296788E0
2.344261268E0,8.614161611E-2,1.579262912E-1,9.806086540E0,9.807736453E0
2.346668247E0,6.939185411E-2,1.411765367E-1,9.806086540E0,9.807348229E0
2.349075226E0,7.896314561E-2,1.555334777E-1,9.796515465E0,9.798068233E0
2.351482206E0,7.896314561E-2,1.555334777E-1,9.808479309E0,9.810030183E0
2.353889185E0,1.076770201E-1,1.531406492E-1,9.803693771E0,9.805481016E0
2.356296164E0,1.124626622E-1,1.579262912E-1,9.784550667E0,9.786471290E0
2.358703143E0,9.332008660E-2,1.507478207E-1,9.796515465E0,9.798119656E0
2.361110122E0,9.810572863E-2,1.603191197E-1,9.796515465E0,9.798318336E0
2.363517101E0,8.374879509E-2,1.387837082E-1,9.789336205E0,9.790678123E0
2.365924081E0,9.092725813E-2,1.435693651E-1,9.786943436E0,9.788418756E0
2.368331060E0,1.028913707E-1,1.483550072E-1,9.789336205E0,9.791000928E0
2.370738039E0,9.571290761E-2,1.603191197E-1,9.791728973E0,9.793509048E0
2.373145018E0,8.614161611E-2,1.746760458E-1,9.808479309E0,9.810412757E0
2.375551997E0,8.614161611E-2,1.603191197E-1,9.803693771E0,9.805382918E0
2.377958976E0,9.810572863E-2,1.531406492E-1,9.806086540E0,9.807772939E0
2.380365956E0,9.810572863E-2,1.507478207E-1,9.798908234E0,9.800558770E0
2.382772935E0,9.332008660E-2,1.531406492E-1,9.810872078E0,9.812510975E0
2.385179914E0,8.853443712E-2,1.411765367E-1,9.798908234E0,9.800325083E0
2.387586893E0,8.135596663E-2,1.316052526E-1,9.784550667E0,9.785773883E0
2.389993924E0,9.332008660E-2,1.339980662E-1,9.801301003E0,9.802661142E0
2.392400851E0,7.896314561E-2,1.363908947E-1,9.786943436E0,9.788212271E0
2.394807883E0,8.853443712E-2,1.483550072E-1,9.794121742E0,9.795645372E0
2.397214862E0,9.571290761E-2,1.627119333E-1,9.791728973E0,9.793548510E0
2.399621841E0,9.571290761E-2,1.674975902E-1,9.794121742E0,9.796021494E0
2.402028820E0,9.571290761E-2,1.627119333E-1,9.803693771E0,9.805511088E0
2.404435799E0,9.810572863E-2,1.555334777E-1,9.818050385E0,9.819772337E0
2.406842778E0,9.571290761E-2,1.674975902E-1,9.810872078E0,9.812768587E0
2.409249758E0,8.614161611E-2,1.674975902E-1,9.803693771E0,9.805502913E0
2.411656737E0,8.135596663E-2,1.579262912E-1,9.796515465E0,9.798126084E0
2.414063716E0,8.614161611E-2,1.387837082E-1,9.794121742E0,9.795483755E0
2.416470695E0,7.178468257E-2,1.387837082E-1,9.779765129E0,9.781013237E0
2.418877674E0,9.092725813E-2,1.459621787E-1,9.791728973E0,9.793238944E0
2.421284653E0,9.571290761E-2,1.507478207E-1,9.789336205E0,9.790964671E0
2.423691633E0,9.810572863E-2,1.411765367E-1,9.794121742E0,9.795630467E0
2.426098612E0,8.853443712E-2,1.531406492E-1,9.798908234E0,9.800504731E0
2.428505591E0,7.896314561E-2,1.603191197E-1,9.786943436E0,9.788574933E0
2.430912570E0,8.614161611E-2,1.435693651E-1,9.798908234E0,9.800338520E0
2.433319549E0,7.896314561E-2,1.411765367E-1,9.796515465E0,9.797850848E0
2.435726528E0,9.332008660E-2,1.435693651E-1,9.798908234E0,9.800404245E0
2.438133508E0,8.135596663E-2,1.387837082E-1,9.803693771E0,9.805013578E0
2.440540487E0,8.135596663E-2,1.579262912E-1,9.789336205E0,9.790948005E0
2.442947466E0,8.135596663E-2,1.651047617E-1,9.798908234E0,9.800636762E0
2.445354445E0,9.571290761E-2,1.674975902E-1,9.791728973E0,9.793629189E0
2.447761424E0,8.853443712E-2,1.627119333E-1,9.796515465E0,9.798266621E0
2.450168403E0,7.896314561E-2,1.507478207E-1,9.806086540E0,9.807563067E0
2.452575383E0,8.614161611E-2,1.459621787E-1,9.798908234E0,9.800373866E0
2.454982362E0,9.092725813E-2,1.507478207E-1,9.798908234E0,9.800489541E0
2.457389341E0,8.853443712E-2,1.411765367E-1,9.789336205E0,9.790754439E0
2.459796320E0,9.092725813E-2,1.531406492E-1,9.786943436E0,9.788563819E0
2.462203351E0,7.178468257E-2,1.339980662E-1,9.786943436E0,9.788123944E0
2.464610331E0,7.417750359E-2,1.674975902E-1,9.789336205E0,9.791050049E0
2.467017258E0,9.332008660E-2,1.746760458E-1,9.798908234E0,9.800909291E0
2.469424289E0,9.810572863E-2,1.603191197E-1,9.794121742E0,9.795925054E0
2.471831268E0,9.092725813E-2,1.483550072E-1,9.808479309E0,9.810022596E0
2.474238247E0,9.332008660E-2,1.674975902E-1,9.801301003E0,9.803176293E0
2.476645226E0,9.332008660E-2,1.698904037E-1,9.801301003E0,9.803217468E0
2.479052206E0,9.571290761E-2,1.603191197E-1,9.796515465E0,9.798294670E0
2.481459185E0,1.028913707E-1,1.531406492E-1,9.810872078E0,9.812606668E0
2.483866164E0,1.100698411E-1,1.531406492E-1,9.818050385E0,9.819861546E0
2.486273143E0,1.028913707E-1,1.531406492E-1,9.806086540E0,9.807821977E0
2.488680122E0,9.092725813E-2,1.483550072E-1,9.815657616E0,9.817199774E0
2.491087101E0,1.052841991E-1,1.651047617E-1,9.801301003E0,9.803256892E0
2.493494081E0,9.810572863E-2,1.674975902E-1,9.808479309E0,9.810399917E0
2.495901060E0,1.028913707E-1,1.579262912E-1,9.796515465E0,9.798328562E0
2.498308039E0,8.853443712E-2,1.579262912E-1,9.801301003E0,9.802973039E0
2.500715018E0,8.853443712E-2,1.603191197E-1,9.803693771E0,9.805404231E0
2.503121997E0,9.571290761E-2,1.507478207E-1,9.813264847E0,9.814889343E0
2.505528976E0,1.028913707E-1,1.387837082E-1,9.803693771E0,9.805215914E0
2.507935956E0,1.004985496E-1,1.363908947E-1,9.798908234E0,9.800372697E0
2.510342935E0,9.810572863E-2,1.627119333E-1,9.786943436E0,9.788787551E0
2.512749914E0,8.614161611E-2,1.674975902E-1,9.789336205E0,9.791147999E0
2.515156893E0,9.571290761E-2,1.603191197E-1,9.796515465E0,9.798294670E0
2.517563872E0,8.135596663E-2,1.555334777E-1,9.806086540E0,9.807657350E0
2.519970851E0,9.092725813E-2,1.603191197E-1,9.801301003E0,9.803033782E0
2.522377831E0,9.332008660E-2,1.531406492E-1,9.784550667E0,9.786193972E0
2.524784810E0,8.374879509E-2,1.435693651E-1,9.772586823E0,9.774000165E0
2.527191789E0,7.896314561E-2,1.531406492E-1,9.786943436E0,9.788459994E0
2.529598768E0,8.374879509E-2,1.770688742E-1,9.784550667E0,9.786511074E0
2.532005747E0,9.332008660E-2,1.722832322E-1,9.794121742E0,9.796081403E0
2.534412726E0,8.853443712E-2,1.579262912E-1,9.806086540E0,9.807757761E0
2.536819706E0,9.571290761E-2,1.722832322E-1,9.808479309E0,9.810459155E0
2.539226685E0,9.571290761E-2,1.674975902E-1,9.798908234E0,9.800807057E0
2.541633716E0,1.052841991E-1,1.746760458E-1,9.808479309E0,9.810599515E0
2.544040695E0,1.100698411E-1,1.698904037E-1,9.803693771E0,9.805783481E0
2.546447622E0,9.810572863E-2,1.651047617E-1,9.796515465E0,9.798397806E0
2.548854653E0,9.092725813E-2,1.651047617E-1,9.808479309E0,9.810290195E0
2.551261633E0,7.657032460E-2,1.411765367E-1,9.796515465E0,9.797831856E0
2.553668612E0,7.896314561E-2,1.507478207E-1,9.791728973E0,9.793207665E0
2.556075591E0,8.135596663E-2,1.411765367E-1,9.784550667E0,9.785907283E0
2.558482570E0,7.657032460E-2,1.435693651E-1,9.791728973E0,9.793080795E0
2.560889549E0,8.853443712E-2,1.531406492E-1,9.803693771E0,9.805289489E0
2.563296528E0,8.135596663E-2,1.459621787E-1,9.803693771E0,9.805117812E0
2.565703508E0,6.699903309E-2,1.387837082E-1,9.806086540E0,9.807297437E0
2.568110487E0,1.004985496E-1,1.579262912E-1,9.808479309E0,9.810265390E0
2.570517466E0,1.028913707E-1,1.722832322E-1,9.803693771E0,9.805747279E0
2.572924445E0,1.052841991E-1,1.531406492E-1,9.798908234E0,9.800670354E0
2.575331424E0,9.332008660E-2,1.459621787E-1,9.796515465E0,9.798047196E0
2.577738403E0,1.004985496E-1,1.579262912E-1,9.791728973E0,9.793518109E0
2.580145383E0,1.100698411E-1,1.507478207E-1,9.798908234E0,9.800685836E0
2.582552362E0,1.004985496E-1,1.483550072E-1,9.813264847E0,9.814900719E0
2.584959341E0,1.052841991E-1,1.459621787E-1,9.789336205E0,9.790990402E0
2.587366320E0,9.332008660E-2,1.579262912E-1,9.796515465E0,9.798232729E0
2.589773299E0,8.853443712E-2,1.627119333E-1,9.810872078E0,9.812620672E0
2.592180278E0,1.124626622E-1,1.531406492E-1,9.808479309E0,9.810319376E0
2.594587258E0,8.614161611E-2,1.483550072E-1,9.801301003E0,9.802802198E0
2.596994237E0,9.571290761E-2,1.507478207E-1,9.806086540E0,9.807712226E0
2.599401216E0,1.076770201E-1,1.579262912E-1,9.801301003E0,9.803164611E0
2.601808195E0,9.571290761E-2,1.698904037E-1,9.801301003E0,9.803240538E0
2.604215174E0,9.571290761E-2,1.603191197E-1,9.808479309E0,9.810256344E0
2.606622153E0,9.810572863E-2,1.579262912E-1,9.803693771E0,9.805456492E0
2.609029133E0,1.004985496E-1,1.483550072E-1,9.801301003E0,9.802938871E0
2.611436112E0,1.004985496E-1,1.579262912E-1,9.796515465E0,9.798303727E0
2.613843091E0,1.004985496E-1,1.459621787E-1,9.798908234E0,9.800510573E0
2.616250070E0,1.124626622E-1,1.555334777E-1,9.813264847E0,9.815141643E0
2.618657049E0,1.100698411E-1,1.555334777E-1,9.808479309E0,9.810329882E0
2.621064028E0,9.810572863E-2,1.531406492E-1,9.801301003E0,9.802988225E0
2.623471008E0,1.052841991E-1,1.531406492E-1,9.803693771E0,9.805455032E0
2.625877987E0,1.004985496E-1,1.435693651E-1,9.801301003E0,9.802867614E0
2.628285018E0,9.810572863E-2,1.411765367E-1,9.803693771E0,9.805201023E0
2.630691945E0,9.092725813E-2,1.363908947E-1,9.813264847E0,9.814633829E0
2.633098976E0,9.092725813E-2,1.411765367E-1,9.796515465E0,9.797954574E0
2.635505956E0,8.853443712E-2,1.387837082E-1,9.801301003E0,9.802683337E0
2.637912935E0,1.076770201E-1,1.531406492E-1,9.803693771E0,9.805481016E0
2.640319914E0,8.853443712E-2,1.531406492E-1,9.796515465E0,9.798112352E0
2.642726893E0,9.571290761E-2,1.603191197E-1,9.801301003E0,9.803079339E0
2.645133872E0,1.004985496E-1,1.507478207E-1,9.796515465E0,9.798190655E0
2.647540851E0,1.052841991E-1,1.674975902E-1,9.803693771E0,9.805689765E0
2.649947831E0,9.332008660E-2,1.531406492E-1,9.806086540E0,9.807726237E0
2.652354810E0,1.076770201E-1,1.579262912E-1,9.798908234E0,9.800772297E0
2.654761789E0,1.004985496E-1,1.459621787E-1,9.806086540E0,9.807687707E0
2.657168768E0,9.092725813E-2,1.555334777E-1,9.806086540E0,9.807741415E0
2.659575747E0,1.052841991E-1,1.507478207E-1,9.815657616E0,9.817379696E0
2.661982726E0,8.853443712E-2,1.579262912E-1,9.798908234E0,9.800580678E0
2.664389706E0,1.052841991E-1,1.555334777E-1,9.796515465E0,9.798315706E0
2.666796685E0,1.124626622E-1,1.627119333E-1,9.801301003E0,9.803296607E0
2.669203664E0,9.332008660E-2,1.555334777E-1,9.803693771E0,9.805371531E0
2.671610643E0,9.571290761E-2,1.603191197E-1,9.820742607E0,9.822517424E0
2.674017622E0,7.417750359E-2,1.603191197E-1,9.794121742E0,9.795714636E0
2.676424601E0,8.853443712E-2,1.555334777E-1,9.784550667E0,9.786187243E0
2.678831581E0,1.004985496E-1,1.459621787E-1,9.789336205E0,9.790940110E0
2.681238560E0,1.052841991E-1,1.555334777E-1,9.794121742E0,9.795922424E0
2.683645539E0,9.092725813E-2,1.459621787E-1,9.808479309E0,9.809986701E0
2.686052518E0,9.810572863E-2,1.483550072E-1,9.801301003E0,9.802914632E0
2.688459497E0,9.571290761E-2,1.651047617E-1,9.798908234E0,9.800766455E0
2.690866476E0,7.896314561E-2,1.459621787E-1,9.791728973E0,9.793135168E0
2.693273456E0,9.571290761E-2,1.459621787E-1,9.813264847E0,9.814817007E0
2.695680435E0,8.614161611E-2,1.411765367E-1,9.815657616E0,9.817050760E0
2.698087414E0,8.374879509E-2,1.531406492E-1,9.806086540E0,9.807639836E0
2.700494393E0,8.374879509E-2,1.507478207E-1,9.796515465E0,9.798033171E0
2.702901372E0,1.028913707E-1,1.603191197E-1,9.801301003E0,9.803152054E0
2.705308351E0,9.810572863E-2,1.459621787E-1,9.806086540E0,9.807663479E0
2.707715331E0,8.614161611E-2,1.507478207E-1,9.798908234E0,9.800446309E0
2.710122362E0,9.571290761E-2,1.363908947E-1,9.789336205E0,9.790754147E0
2.712529289E0,9.332008660E-2,1.339980662E-1,9.798908234E0,9.800268705E0
2.714936268E0,9.810572863E-2,1.531406492E-1,9.791728973E0,9.793417845E0
2.717343247E0,9.092725813E-2,1.651047617E-1,9.786943436E0,9.788758305E0
2.719750226E0,1.076770201E-1,1.722832322E-1,9.796515465E0,9.798621898E0
2.722157258E0,1.076770201E-1,1.603191197E-1,9.810872078E0,9.812772671E0
2.724564237E0,9.571290761E-2,1.555334777E-1,9.803693771E0,9.805394596E0
2.726971216E0,1.028913707E-1,1.651047617E-1,9.808479309E0,9.810408380E0
2.729378195E0,9.571290761E-2,1.627119333E-1,9.813264847E0,9.815080391E0
2.731785174E0,9.332008660E-2,1.459621787E-1,9.803693771E0,9.805224381E0
2.734192153E0,9.332008660E-2,1.363908947E-1,9.810872078E0,9.812263859E0
2.736599133E0,9.571290761E-2,1.292124242E-1,9.808479309E0,9.809797305E0
2.739006112E0,1.004985496E-1,1.363908947E-1,9.798908234E0,9.800372697E0
2.741413091E0,9.810572863E-2,1.387837082E-1,9.808479309E0,9.809951682E0
2.743820070E0,8.135596663E-2,1.411765367E-1,9.813264847E0,9.814617494E0
2.746227049E0,8.614161611E-2,1.459621787E-1,9.801301003E0,9.802766277E0
2.748634028E0,9.810572863E-2,1.579262912E-1,9.794121742E0,9.795886185E0
2.751041008E0,1.004985496E-1,1.627119333E-1,9.803693771E0,9.805558969E0
2.753447987E0,8.135596663E-2,1.651047617E-1,9.801301003E0,9.803029109E0
2.755854966E0,9.810572863E-2,1.627119333E-1,9.789336205E0,9.791179869E0
2.758261945E0,9.092725813E-2,1.555334777E-1,9.798908234E0,9.800564321E0
2.760668924E0,9.571290761E-2,1.603191197E-1,9.801301003E0,9.803079339E0
2.763075903E0,9.571290761E-2,1.651047617E-1,9.791728973E0,9.793588557E0
2.765482883E0,9.571290761E-2,1.627119333E-1,9.789336205E0,9.791156186E0
2.767889862E0,7.896314561E-2,1.674975902E-1,9.791728973E0,9.793479816E0
2.770296841E0,7.657032460E-2,1.746760458E-1,9.786943436E0,9.788801589E0
2.772703820E0,7.657032460E-2,1.531406492E-1,9.789336205E0,9.790833386E0
2.775110799E0,7.657032460E-2,1.459621787E-1,9.796515465E0,9.797901981E0
2.777517778E0,6.699903309E-2,1.555334777E-1,9.803693771E0,9.805156352E0
2.779924758E0,7.896314561E-2,1.459621787E-1,9.791728973E0,9.793135168E0
2.782331737E0,9.571290761E-2,1.531406492E-1,9.801301003E0,9.802964570E0
2.784738716E0,1.004985496E-1,1.531406492E-1,9.794121742E0,9.795834458E0
2.787145695E0,8.374879509E-2,1.555334777E-1,9.794121742E0,9.795714636E0
2.789552674E0,8.374879509E-2,1.507478207E-1,9.798908234E0,9.800425569E0
2.791959653E0,8.374879509E-2,1.674975902E-1,9.801301003E0,9.803089852E0
2.794366633E0,8.135596663E-2,1.698904037E-1,9.815657616E0,9.817464844E0
2.796773612E0,1.052841991E-1,1.531406492E-1,9.808479309E0,9.810239711E0
2.799180591E0,9.092725813E-2,1.603191197E-1,9.798908234E0,9.800641436E0
2.801587570E0,8.135596663E-2,1.483550072E-1,9.791728973E0,9.793190710E0
2.803994549E0,9.571290761E-2,1.411765367E-1,9.796515465E0,9.798000154E0
2.806401528E0,9.571290761E-2,1.507478207E-1,9.801301003E0,9.802927482E0
2.808808508E0,8.135596663E-2,1.531406492E-1,9.798908234E0,9.800442512E0
2.811215487E0,9.332008660E-2,1.555334777E-1,9.796515465E0,9.798194454E0
2.813622466E0,1.028913707E-1,1.651047617E-1,9.789336205E0,9.791269047E0
2.816029445E0,9.810572863E-2,1.651047617E-1,9.791728973E0,9.793612235E0
2.818436424E0,8.853443712E-2,1.483550072E-1,9.798908234E0,9.800431119E0
2.820843456E0,9.332008660E-2,1.507478207E-1,9.803693771E0,9.805296788E0
2.823250435E0,1.004985496E-1,1.459621787E-1,9.806086540E0,9.807687707E0
2.825657362E0,1.028913707E-1,1.411765367E-1,9.815657616E0,9.817212022E0
2.828064393E0,9.332008660E-2,1.555334777E-1,9.801301003E0,9.802979172E0
2.830471372E0,8.374879509E-2,1.411765367E-1,9.794121742E0,9.795497199E0
2.832878351E0,8.614161611E-2,1.459621787E-1,9.801301003E0,9.802766277E0
2.835285331E0,8.374879509E-2,1.627119333E-1,9.803693771E0,9.805401603E0
2.837692310E0,9.332008660E-2,1.770688742E-1,9.796515465E0,9.798559959E0
2.840099289E0,1.004985496E-1,1.698904037E-1,9.786943436E0,9.788933779E0
2.842506268E0,1.076770201E-1,1.698904037E-1,9.791728973E0,9.793794636E0
2.844913247E0,8.853443712E-2,1.627119333E-1,9.794121742E0,9.795873326E0
2.847320226E0,8.374879509E-2,1.507478207E-1,9.806086540E0,9.807602765E0
2.849727206E0,9.092725813E-2,1.459621787E-1,9.813264847E0,9.814771504E0
2.852134185E0,1.028913707E-1,1.507478207E-1,9.801301003E0,9.803000198E0
2.854541164E0,1.052841991E-1,1.674975902E-1,9.794121742E0,9.796119686E0
2.856948143E0,1.004985496E-1,1.651047617E-1,9.798908234E0,9.800814360E0
2.859355122E0,9.810572863E-2,1.507478207E-1,9.791728973E0,9.793380720E0
2.861762101E0,9.810572863E-2,1.459621787E-1,9.794121742E0,9.795700608E0
2.864169081E0,9.092725813E-2,1.531406492E-1,9.794121742E0,9.795740938E0
2.866576060E0,8.374879509E-2,1.435693651E-1,9.796515465E0,9.797925356E0
2.868983039E0,1.004985496E-1,1.555334777E-1,9.798908234E0,9.800657794E0
2.871390018E0,8.614161611E-2,1.459621787E-1,9.803693771E0,9.805158688E0
2.873796997E0,9.571290761E-2,1.531406492E-1,9.818050385E0,9.819711114E0
2.876203976E0,7.657032460E-2,1.555334777E-1,9.815657616E0,9.817188401E0
2.878610956E0,7.417750359E-2,1.603191197E-1,9.796515465E0,9.798107969E0
2.881017935E0,8.853443712E-2,1.698904037E-1,9.786943436E0,9.788818259E0
2.883424914E0,1.052841991E-1,1.698904037E-1,9.784550667E0,9.786591810E0
2.885831893E0,9.332008660E-2,1.698904037E-1,9.794121742E0,9.796039613E0
2.888238872E0,8.853443712E-2,1.531406492E-1,9.801301003E0,9.802897110E0
2.890645851E0,9.810572863E-2,1.507478207E-1,9.803693771E0,9.805343503E0
2.893052831E0,1.076770201E-1,1.507478207E-1,9.801301003E0,9.803051596E0
2.895459810E0,1.076770201E-1,1.531406492E-1,9.803693771E0,9.805481016E0
2.897866789E0,9.571290761E-2,1.555334777E-1,9.789336205E0,9.791039523E0
2.900273768E0,7.178468257E-2,1.339980662E-1,9.794121742E0,9.795301385E0
2.902680747E0,8.614161611E-2,1.435693651E-1,9.808479309E0,9.809908200E0
2.905087726E0,7.417750359E-2,1.531406492E-1,9.794121742E0,9.795599781E0
2.907494706E0,7.657032460E-2,1.555334777E-1,9.808479309E0,9.810011215E0
2.909901685E0,8.374879509E-2,1.531406492E-1,9.810872078E0,9.812424616E0
2.912308664E0,1.028913707E-1,1.363908947E-1,9.801301003E0,9.802789932E0
2.914715643E0,9.092725813E-2,1.459621787E-1,9.803693771E0,9.805201899E0
2.917122622E0,9.810572863E-2,1.316052526E-1,9.791728973E0,9.793104766E0
2.919529601E0,1.028913707E-1,1.435693651E-1,9.796515465E0,9.798107677E0
2.921936581E0,9.092725813E-2,1.411765367E-1,9.808479309E0,9.809916663E0
2.924343560E0,8.135596663E-2,1.555334777E-1,9.810872078E0,9.812442121E0
2.926750539E0,1.004985496E-1,1.483550072E-1,9.803693771E0,9.805331240E0
2.929157518E0,7.896314561E-2,1.459621787E-1,9.798908234E0,9.800313398E0
2.931564497E0,1.028913707E-1,1.435693651E-1,9.815657616E0,9.817246723E0
2.933971476E0,1.028913707E-1,1.507478207E-1,9.803693771E0,9.805392552E0
2.936378456E0,1.124626622E-1,1.459621787E-1,9.806086540E0,9.807817598E0
2.938785487E0,8.614161611E-2,1.531406492E-1,9.803693771E0,9.805268176E0
2.941192414E0,9.571290761E-2,1.627119333E-1,9.810872078E0,9.812688065E0
2.943599393E0,1.124626622E-1,1.531406492E-1,9.803693771E0,9.805534737E0
2.946006424E0,9.332008660E-2,1.363908947E-1,9.803693771E0,9.805086572E0
2.948413403E0,9.571290761E-2,1.483550072E-1,9.820742607E0,9.822329435E0
2.950820383E0,8.135596663E-2,1.579262912E-1,9.810872078E0,9.812480341E0
2.953227362E0,8.614161611E-2,1.507478207E-1,9.808479309E0,9.810015884E0
2.955634341E0,9.332008660E-2,1.531406492E-1,9.803693771E0,9.805333868E0
2.958041320E0,8.374879509E-2,1.459621787E-1,9.806086540E0,9.807530375E0
2.960448299E0,8.135596663E-2,1.651047617E-1,9.784550667E0,9.786281731E0
2.962855278E0,8.135596663E-2,1.531406492E-1,9.801301003E0,9.802834906E0
2.965262258E0,1.004985496E-1,1.459621787E-1,9.806086540E0,9.807687707E0
2.967669237E0,1.028913707E-1,1.531406492E-1,9.803693771E0,9.805429631E0
2.970076216E0,1.028913707E-1,1.483550072E-1,9.808479309E0,9.810140784E0
2.972483195E0,1.100698411E-1,1.483550072E-1,9.806086540E0,9.807826355E0
2.974890174E0,1.172483116E-1,1.339980662E-1,9.806086540E0,9.807702885E0
2.977297153E0,1.100698411E-1,1.435693651E-1,9.806086540E0,9.807755134E0
2.979704133E0,9.571290761E-2,1.722832322E-1,9.796515465E0,9.798497728E0
2.982111112E0,8.853443712E-2,1.555334777E-1,9.815657616E0,9.817289006E0
2.984518091E0,8.135596663E-2,1.459621787E-1,9.808479309E0,9.809902655E0
2.986925070E0,8.614161611E-2,1.579262912E-1,9.798908234E0,9.800559355E0
2.989332049E0,9.571290761E-2,1.579262912E-1,9.806086540E0,9.807825187E0
2.991739028E0,9.092725813E-2,1.459621787E-1,9.801301003E0,9.802809499E0
2.994146008E0,1.004985496E-1,1.459621787E-1,9.806086540E0,9.807687707E0
2.996552987E0,8.853443712E-2,1.555334777E-1,9.803693771E0,9.805327153E0
2.998959966E0,9.092725813E-2,1.746760458E-1,9.794121742E0,9.796101275E0
3.001366945E0,7.417750359E-2,1.579262912E-1,9.808479309E0,9.810031059E0
3.003773924E0,8.135596663E-2,1.507478207E-1,9.794121742E0,9.795619654E0
3.006180903E0,8.614161611E-2,1.603191197E-1,9.794121742E0,9.795812539E0
3.008587883E0,7.657032460E-2,1.674975902E-1,9.786943436E0,9.788676124E0
3.010994862E0,7.178468257E-2,1.579262912E-1,9.806086540E0,9.807620863E0
3.013401841E0,6.699903309E-2,1.579262912E-1,9.810872078E0,9.812371809E0
3.015808820E0,9.571290761E-2,1.507478207E-1,9.820742607E0,9.822365867E0
3.018215799E0,9.810572863E-2,1.483550072E-1,9.806086540E0,9.807699382E0
3.020622778E0,1.052841991E-1,1.531406492E-1,9.801301003E0,9.803062693E0
3.023029758E0,8.614161611E-2,1.483550072E-1,9.782157898E0,9.783662030E0
3.025436737E0,1.052841991E-1,1.603191197E-1,9.782157898E0,9.784038027E0
3.027843716E0,1.052841991E-1,1.722832322E-1,9.808479309E0,9.810557203E0
3.030250695E0,1.076770201E-1,1.531406492E-1,9.815657616E0,9.817442683E0
3.032657674E0,1.124626622E-1,1.435693651E-1,9.810872078E0,9.812566990E0
3.035064653E0,1.124626622E-1,1.531406492E-1,9.782157898E0,9.784002915E0
3.037471633E0,9.810572863E-2,1.483550072E-1,9.786943436E0,9.788559432E0
3.039878612E0,8.614161611E-2,1.387837082E-1,9.803693771E0,9.805054455E0
3.042285591E0,8.135596663E-2,1.555334777E-1,9.786943436E0,9.788517317E0
3.044692570E0,9.092725813E-2,1.603191197E-1,9.801301003E0,9.803033782E0
3.047099549E0,8.614161611E-2,1.651047617E-1,9.810872078E0,9.812639344E0
3.049506528E0,1.052841991E-1,1.531406492E-1,9.808479309E0,9.810239711E0
3.051913508E0,1.052841991E-1,1.459621787E-1,9.808479309E0,9.810130278E0
3.054320487E0,9.571290761E-2,1.483550072E-1,9.796515465E0,9.798106216E0
3.056727466E0,9.810572863E-2,1.459621787E-1,9.798908234E0,9.800486328E0
3.059134445E0,9.571290761E-2,1.363908947E-1,9.806086540E0,9.807502061E0
3.061541424E0,9.092725813E-2,1.483550072E-1,9.796515465E0,9.798060636E0
3.063948403E0,8.374879509E-2,1.722832322E-1,9.777372360E0,9.779248726E0
3.066355383E0,7.896314561E-2,1.651047617E-1,9.791728973E0,9.793439184E0
3.068762362E0,8.374879509E-2,1.507478207E-1,9.803693771E0,9.805210366E0
3.071169341E0,8.853443712E-2,1.651047617E-1,9.806086540E0,9.807875976E0
3.073576320E0,8.853443712E-2,1.698904037E-1,9.801301003E0,9.803173080E0
3.075983299E0,9.332008660E-2,1.531406492E-1,9.803693771E0,9.805333868E0
3.078390331E0,8.853443712E-2,1.579262912E-1,9.810872078E0,9.812542483E0
3.080797258E0,8.853443712E-2,1.698904037E-1,9.813264847E0,9.815134642E0
3.083204237E0,8.614161611E-2,1.507478207E-1,9.794121742E0,9.795660569E0
3.085611268E0,1.004985496E-1,1.579262912E-1,9.794121742E0,9.795910441E0
3.088018247E0,1.004985496E-1,1.603191197E-1,9.806086540E0,9.807911878E0
3.090425226E0,1.004985496E-1,1.651047617E-1,9.808479309E0,9.810383575E0
3.092832206E0,8.614161611E-2,1.651047617E-1,9.808479309E0,9.810247006E0
3.095239185E0,8.853443712E-2,1.698904037E-1,9.791728973E0,9.793602881E0
3.097646164E0,8.614161611E-2,1.627119333E-1,9.794121742E0,9.795851992E0
3.100053143E0,1.052841991E-1,1.579262912E-1,9.810872078E0,9.812707904E0
3.102460122E0,8.374879509E-2,1.555334777E-1,9.808479309E0,9.810069871E0
3.104867101E0,8.853443712E-2,1.435693651E-1,9.803693771E0,9.805144674E0
3.107274081E0,1.004985496E-1,1.507478207E-1,9.810872078E0,9.812544817E0
3.109681060E0,9.332008660E-2,1.651047617E-1,9.803693771E0,9.805528022E0
3.112088039E0,9.810572863E-2,1.770688742E-1,9.808479309E0,9.810568000E0
3.114495018E0,9.332008660E-2,1.603191197E-1,9.820742607E0,9.822494399E0
3.116901997E0,8.374879509E-2,1.627119333E-1,9.806086540E0,9.807793955E0
3.119308976E0,7.896314561E-2,1.651047617E-1,9.794121742E0,9.795831535E0
3.121715956E0,8.853443712E-2,1.483550072E-1,9.794121742E0,9.795645372E0
3.124122935E0,1.076770201E-1,1.459621787E-1,9.806086540E0,9.807763891E0
3.126529914E0,1.148554832E-1,1.411765367E-1,9.808479309E0,9.810167631E0
3.128936893E0,1.196411327E-1,1.435693651E-1,9.815657616E0,9.817436559E0
3.131343872E0,1.052841991E-1,1.698904037E-1,9.806086540E0,9.808123202E0
3.133750851E0,8.374879509E-2,1.627119333E-1,9.810872078E0,9.812578660E0
3.136157831E0,1.028913707E-1,1.507478207E-1,9.818050385E0,9.819746682E0
3.138564810E0,9.571290761E-2,1.603191197E-1,9.813264847E0,9.815041015E0
3.140971789E0,7.896314561E-2,1.603191197E-1,9.798908234E0,9.800537739E0
3.143378768E0,7.896314561E-2,1.579262912E-1,9.813264847E0,9.814853175E0
3.145785747E0,9.810572863E-2,1.651047617E-1,9.808479309E0,9.810359355E0
3.148192726E0,1.028913707E-1,1.579262912E-1,9.796515465E0,9.798328562E0
3.150599706E0,1.004985496E-1,1.507478207E-1,9.803693771E0,9.805367735E0
3.153006685E0,9.332008660E-2,1.555334777E-1,9.801301003E0,9.802979172E0
3.155413664E0,9.332008660E-2,1.531406492E-1,9.801301003E0,9.802941499E0
3.157820643E0,1.004985496E-1,1.459621787E-1,9.801301003E0,9.802902951E0
3.160227622E0,1.076770201E-1,1.435693651E-1,9.810872078E0,9.812513309E0
3.162634601E0,8.614161611E-2,1.555334777E-1,9.803693771E0,9.805305839E0
3.165041581E0,8.614161611E-2,1.579262912E-1,9.806086540E0,9.807736453E0
3.167448560E0,8.614161611E-2,1.579262912E-1,9.801301003E0,9.802951720E0
3.169855539E0,9.810572863E-2,1.555334777E-1,9.801301003E0,9.803025897E0
3.172262518E0,1.028913707E-1,1.722832322E-1,9.796515465E0,9.798570477E0
3.174669497E0,9.332008660E-2,1.674975902E-1,9.798908234E0,9.800783982E0
3.177076476E0,9.571290761E-2,1.579262912E-1,9.810872078E0,9.812609877E0
3.179483456E0,1.004985496E-1,1.627119333E-1,9.798908234E0,9.800774342E0
3.181890435E0,9.092725813E-2,1.483550072E-1,9.791728973E0,9.793274900E0
3.184297414E0,7.896314561E-2,1.579262912E-1,9.789336205E0,9.790928414E0
3.186704393E0,7.896314561E-2,1.603191197E-1,9.789336205E0,9.790967303E0
3.189111372E0,9.332008660E-2,1.555334777E-1,9.806086540E0,9.807763891E0
3.191518351E0,9.332008660E-2,1.579262912E-1,9.794121742E0,9.795839426E0
3.193925331E0,9.092725813E-2,1.627119333E-1,9.803693771E0,9.805465542E0
3.196332310E0,9.332008660E-2,1.651047617E-1,9.813264847E0,9.815097308E0
3.198739289E0,7.657032460E-2,1.507478207E-1,9.806086540E0,9.807544094E0
3.201146268E0,8.135596663E-2,1.722832322E-1,9.796515465E0,9.798368005E0
3.203553247E0,8.135596663E-2,1.674975902E-1,9.803693771E0,9.805462039E0
3.205960226E0,9.571290761E-2,1.579262912E-1,9.801301003E0,9.803040499E0
3.208367206E0,8.374879509E-2,1.531406492E-1,9.798908234E0,9.800462667E0
3.210774185E0,9.332008660E-2,1.555334777E-1,9.798908234E0,9.800586813E0
3.213181164E0,9.810572863E-2,1.579262912E-1,9.796515465E0,9.798279476E0
3.215588143E0,1.052841991E-1,1.746760458E-1,9.798908234E0,9.801030510E0
3.217995122E0,9.092725813E-2,1.698904037E-1,9.796515465E0,9.798410369E0
3.220402101E0,8.135596663E-2,1.555334777E-1,9.803693771E0,9.805264964E0
3.222809081E0,1.028913707E-1,1.507478207E-1,9.796515465E0,9.798215490E0
3.225216060E0,9.092725813E-2,1.411765367E-1,9.803693771E0,9.805131827E0
3.227623039E0,7.417750359E-2,1.603191197E-1,9.796515465E0,9.798107969E0
3.230030018E0,6.939185411E-2,1.459621787E-1,9.791728973E0,9.793062671E0
3.232436997E0,7.657032460E-2,1.459621787E-1,9.796515465E0,9.797901981E0
3.234843976E0,8.614161611E-2,1.627119333E-1,9.803693771E0,9.805422332E0
3.237250956E0,1.076770201E-1,1.555334777E-1,9.803693771E0,9.805518679E0
3.239657935E0,9.571290761E-2,1.531406492E-1,9.796515465E0,9.798179845E0
3.242064914E0,1.028913707E-1,1.531406492E-1,9.794121742E0,9.795859298E0
3.244471893E0,9.332008660E-2,1.603191197E-1,9.789336205E0,9.791093615E0
3.246878872E0,8.374879509E-2,1.459621787E-1,9.786943436E0,9.788390094E0
3.249285851E0,9.332008660E-2,1.411765367E-1,9.779765129E0,9.781229239E0
3.251692831E0,7.417750359E-2,1.435693651E-1,9.803693771E0,9.805025550E0
3.254099810E0,8.135596663E-2,1.507478207E-1,9.806086540E0,9.807582624E0
3.256506789E0,9.571290761E-2,1.531406492E-1,9.791728973E0,9.793394167E0
3.258913768E0,1.028913707E-1,1.507478207E-1,9.798908234E0,9.800607844E0
3.261320747E0,1.100698411E-1,1.555334777E-1,9.808479309E0,9.810329882E0
3.263727778E0,9.332008660E-2,1.555334777E-1,9.803693771E0,9.805371531E0
3.266134706E0,9.092725813E-2,1.483550072E-1,9.798908234E0,9.800453028E0
3.268541737E0,9.092725813E-2,1.459621787E-1,9.815657616E0,9.817163906E0
3.270948664E0,9.571290761E-2,1.555334777E-1,9.801301003E0,9.803002242E0
3.273355695E0,8.614161611E-2,1.531406492E-1,9.813264847E0,9.814837716E0
3.275762674E0,1.052841991E-1,1.674975902E-1,9.803693771E0,9.805689765E0
3.278169653E0,1.004985496E-1,1.698904037E-1,9.808479309E0,9.810465283E0
3.280576581E0,9.332008660E-2,1.627119333E-1,9.806086540E0,9.807880354E0
3.282983612E0,9.092725813E-2,1.459621787E-1,9.796515465E0,9.798024698E0
3.285390591E0,9.092725813E-2,1.627119333E-1,9.794121742E0,9.795895245E0
3.287797570E0,8.374879509E-2,1.555334777E-1,9.796515465E0,9.798107969E0
3.290204549E0,9.332008660E-2,1.627119333E-1,9.801301003E0,9.803095692E0
3.292611528E0,7.896314561E-2,1.507478207E-1,9.806086540E0,9.807563067E0
3.295018508E0,7.657032460E-2,1.459621787E-1,9.798908234E0,9.800294411E0
3.297425487E0,9.092725813E-2,1.555334777E-1,9.813264847E0,9.814918511E0
3.299832466E0,1.004985496E-1,1.459621787E-1,9.808479309E0,9.810080085E0
3.302239445E0,1.004985496E-1,1.507478207E-1,9.820742607E0,9.822413666E0
3.304646424E0,9.332008660E-2,1.627119333E-1,9.813264847E0,9.815057349E0
3.307053403E0,9.332008660E-2,1.722832322E-1,9.801301003E0,9.803259228E0
3.309460383E0,9.571290761E-2,1.555334777E-1,9.796515465E0,9.798217536E0
3.311867362E0,9.092725813E-2,1.507478207E-1,9.794121742E0,9.795703822E0
3.314274341E0,1.100698411E-1,1.316052526E-1,9.806086540E0,9.807587295E0
3.316681320E0,9.332008660E-2,1.507478207E-1,9.806086540E0,9.807689166E0
3.319088299E0,7.178468257E-2,1.435693651E-1,9.796515465E0,9.797830395E0
3.321495278E0,8.614161611E-2,1.459621787E-1,9.801301003E0,9.802766277E0
3.323902258E0,9.571290761E-2,1.483550072E-1,9.798908234E0,9.800498597E0
3.326309237E0,1.052841991E-1,1.483550072E-1,9.798908234E0,9.800596744E0
3.328716216E0,1.004985496E-1,1.674975902E-1,9.796515465E0,9.798462668E0
3.331123195E0,1.052841991E-1,1.722832322E-1,9.791728973E0,9.793810421E0
3.333530174E0,9.810572863E-2,1.435693651E-1,9.796515465E0,9.798058591E0
3.335937153E0,1.052841991E-1,1.435693651E-1,9.794121742E0,9.795739769E0
3.338344133E0,9.810572863E-2,1.387837082E-1,9.798908234E0,9.800382045E0
3.340751112E0,9.332008660E-2,1.435693651E-1,9.798908234E0,9.800404245E0
3.343158091E0,9.810572863E-2,1.555334777E-1,9.791728973E0,9.793455554E0
3.345565070E0,9.092725813E-2,1.674975902E-1,9.796515465E0,9.798369174E0
3.347972049E0,8.135596663E-2,1.555334777E-1,9.801301003E0,9.802872579E0
3.350379028E0,7.657032460E-2,1.507478207E-1,9.803693771E0,9.805151681E0
3.352786008E0,8.374879509E-2,1.507478207E-1,9.786943436E0,9.788462626E0
3.355192987E0,8.614161611E-2,1.459621787E-1,9.791728973E0,9.793195680E0
3.357599966E0,8.135596663E-2,1.603191197E-1,9.782157898E0,9.783809798E0
3.360006945E0,8.614161611E-2,1.651047617E-1,9.786943436E0,9.788715022E0
3.362413924E0,7.896314561E-2,1.483550072E-1,9.808479309E0,9.809918998E0
3.364820903E0,8.614161611E-2,1.507478207E-1,9.806086540E0,9.807623490E0
3.367227883E0,9.332008660E-2,1.555334777E-1,9.810872078E0,9.812548610E0
3.369634862E0,8.853443712E-2,1.435693651E-1,9.806086540E0,9.807537089E0
3.372041841E0,8.614161611E-2,1.435693651E-1,9.810872078E0,9.812300621E0
3.374448820E0,7.896314561E-2,1.555334777E-1,9.794121742E0,9.795674890E0
3.376855799E0,8.853443712E-2,1.698904037E-1,9.796515465E0,9.798388457E0
3.379262778E0,8.853443712E-2,1.603191197E-1,9.796515465E0,9.798227177E0
3.381669758E0,9.332008660E-2,1.746760458E-1,9.789336205E0,9.791339218E0
3.384076737E0,8.374879509E-2,1.674975902E-1,9.810872078E0,9.812659183E0
3.386483716E0,8.614161611E-2,1.603191197E-1,9.808479309E0,9.810167631E0
3.388890695E0,7.896314561E-2,1.411765367E-1,9.798908234E0,9.800243291E0
3.391297674E0,8.853443712E-2,1.459621787E-1,9.801301003E0,9.802787596E0
3.393704653E0,1.004985496E-1,1.459621787E-1,9.813264847E0,9.814864842E0
3.396111633E0,9.571290761E-2,1.603191197E-1,9.806086540E0,9.807864009E0
3.398518612E0,9.332008660E-2,1.579262912E-1,9.803693771E0,9.805409778E0
3.400925591E0,7.417750359E-2,1.603191197E-1,9.796515465E0,9.798107969E0
3.403332570E0,8.614161611E-2,1.459621787E-1,9.801301003E0,9.802766277E0
3.405739549E0,7.657032460E-2,1.555334777E-1,9.803693771E0,9.805226425E0
3.408146528E0,1.028913707E-1,1.411765367E-1,9.806086540E0,9.807642463E0
3.410553508E0,1.076770201E-1,1.411765367E-1,9.798908234E0,9.800516707E0
3.412960487E0,1.004985496E-1,1.339980662E-1,9.810872078E0,9.812301788E0
3.415367466E0,7.896314561E-2,1.387837082E-1,9.806086540E0,9.807386468E0
3.417774445E0,7.417750359E-2,1.579262912E-1,9.810872078E0,9.812423449E0
3.420181424E0,7.178468257E-2,1.627119333E-1,9.806086540E0,9.807699090E0
3.422588403E0,8.374879509E-2,1.507478207E-1,9.818050385E0,9.819564762E0
3.424995383E0,8.135596663E-2,1.316052526E-1,9.806086540E0,9.807307070E0
3.427402362E0,9.332008660E-2,1.483550072E-1,9.808479309E0,9.810045066E0
3.429809341E0,8.853443712E-2,1.603191197E-1,9.798908234E0,9.800619528E0
3.432216320E0,8.614161611E-2,1.555334777E-1,9.801301003E0,9.802913464E0
3.434623299E0,8.614161611E-2,1.698904037E-1,9.798908234E0,9.800759445E0
3.437030278E0,9.332008660E-2,1.627119333E-1,9.789336205E0,9.791133087E0
3.439437258E0,1.004985496E-1,1.651047617E-1,9.791728973E0,9.793636497E0
3.441844237E0,9.571290761E-2,1.603191197E-1,9.786943436E0,9.788724380E0
3.444251216E0,9.092725813E-2,1.603191197E-1,9.813264847E0,9.814995514E0
3.446658195E0,9.092725813E-2,1.603191197E-1,9.801301003E0,9.803033782E0
3.449065174E0,8.853443712E-2,1.674975902E-1,9.798908234E0,9.800739582E0
3.451472153E0,8.135596663E-2,1.627119333E-1,9.798908234E0,9.800596744E0
3.453879133E0,9.332008660E-2,1.555334777E-1,9.801301003E0,9.802979172E0
3.456286112E0,1.124626622E-1,1.459621787E-1,9.810872078E0,9.812602292E0
3.458693091E0,9.810572863E-2,1.531406492E-1,9.806086540E0,9.807772939E0
3.461100070E0,8.853443712E-2,1.579262912E-1,9.810872078E0,9.812542483E0
3.463507049E0,8.374879509E-2,1.531406492E-1,9.808479309E0,9.810032226E0
3.465914028E0,8.853443712E-2,1.579262912E-1,9.803693771E0,9.805365400E0
3.468321008E0,1.004985496E-1,1.483550072E-1,9.813264847E0,9.814900719E0
3.470727987E0,1.028913707E-1,1.555334777E-1,9.806086540E0,9.807859630E0
3.473134966E0,9.810572863E-2,1.603191197E-1,9.803693771E0,9.805495322E0
3.475541945E0,9.092725813E-2,1.579262912E-1,9.801301003E0,9.802994941E0
3.477948924E0,9.810572863E-2,1.507478207E-1,9.815657616E0,9.817305336E0
3.480355903E0,8.135596663E-2,1.339980662E-1,9.801301003E0,9.802554545E0
3.482762883E0,7.896314561E-2,1.459621787E-1,9.803693771E0,9.805098250E0
3.485169862E0,8.614161611E-2,1.459621787E-1,9.808479309E0,9.809943511E0
3.487576841E0,8.374879509E-2,1.459621787E-1,9.808479309E0,9.809922791E0
3.489983820E0,9.571290761E-2,1.507478207E-1,9.806086540E0,9.807712226E0
3.492390799E0,8.135596663E-2,1.507478207E-1,9.801301003E0,9.802797817E0
3.494797778E0,6.699903309E-2,1.483550072E-1,9.801301003E0,9.802652673E0
3.497204758E0,6.699903309E-2,1.579262912E-1,9.803693771E0,9.805194600E0
3.499611737E0,7.657032460E-2,1.603191197E-1,9.803693771E0,9.805303504E0
3.502018716E0,9.571290761E-2,1.603191197E-1,9.796515465E0,9.798294670E0
3.504425695E0,9.810572863E-2,1.411765367E-1,9.789336205E0,9.790845667E0
3.506832674E0,8.614161611E-2,1.651047617E-1,9.789336205E0,9.791107357E0
3.509239653E0,9.810572863E-2,1.555334777E-1,9.794121742E0,9.795847901E0
3.511646633E0,9.092725813E-2,1.579262912E-1,9.796515465E0,9.798210231E0
3.514053612E0,9.810572863E-2,1.531406492E-1,9.801301003E0,9.802988225E0
3.516460591E0,9.571290761E-2,1.555334777E-1,9.796515465E0,9.798217536E0
3.518867570E0,1.052841991E-1,1.579262912E-1,9.796515465E0,9.798353981E0
3.521274549E0,1.076770201E-1,1.579262912E-1,9.784550667E0,9.786417465E0
3.523681528E0,9.332008660E-2,1.555334777E-1,9.801301003E0,9.802979172E0
3.526088508E0,8.853443712E-2,1.507478207E-1,9.810872078E0,9.812429576E0
3.528495487E0,8.374879509E-2,1.579262912E-1,9.808479309E0,9.810108100E0
3.530902466E0,9.092725813E-2,1.483550072E-1,9.806086540E0,9.807630204E0
3.533309445E0,7.178468257E-2,1.507478207E-1,9.801301003E0,9.802723055E0
3.535716424E0,8.614161611E-2,1.435693651E-1,9.806086540E0,9.807515780E0
3.538123403E0,9.332008660E-2,1.483550072E-1,9.803693771E0,9.805260293E0
3.540530383E0,1.004985496E-1,1.674975902E-1,9.803693771E0,9.805639549E0
3.542937362E0,8.853443712E-2,1.674975902E-1,9.794121742E0,9.795953986E0
3.545344341E0,8.374879509E-2,1.555334777E-1,9.796515465E0,9.798107969E0
3.547751320E0,6.939185411E-2,1.603191197E-1,9.796515465E0,9.798072908E0
3.550158299E0,7.417750359E-2,1.651047617E-1,9.796515465E0,9.798187441E0
3.552565278E0,9.092725813E-2,1.435693651E-1,9.794121742E0,9.795595981E0
3.554972258E0,8.614161611E-2,1.411765367E-1,9.784550667E0,9.785948239E0
3.557379237E0,7.657032460E-2,1.339980662E-1,9.786943436E0,9.788160211E0
3.559786216E0,7.896314561E-2,1.435693651E-1,9.798908234E0,9.800278053E0
3.562193195E0,8.614161611E-2,1.459621787E-1,9.791728973E0,9.793195680E0
3.564600174E0,8.853443712E-2,1.507478207E-1,9.796515465E0,9.798075245E0
3.567007153E0,8.135596663E-2,1.363908947E-1,9.813264847E0,9.814549823E0
3.569414133E0,8.135596663E-2,1.698904037E-1,9.808479309E0,9.810287860E0
3.571821112E0,1.052841991E-1,1.674975902E-1,9.803693771E0,9.805689765E0
3.574228091E0,1.100698411E-1,1.651047617E-1,9.782157898E0,9.784170281E0
3.576635070E0,8.135596663E-2,1.531406492E-1,9.803693771E0,9.805227300E0
3.579042049E0,8.853443712E-2,1.507478207E-1,9.810872078E0,9.812429576E0
3.581449028E0,8.614161611E-2,1.579262912E-1,9.820742607E0,9.822390058E0
3.583856008E0,8.853443712E-2,1.651047617E-1,9.815657616E0,9.817445307E0
3.586262987E0,8.614161611E-2,1.722832322E-1,9.796515465E0,9.798408909E0
3.588669966E0,9.092725813E-2,1.651047617E-1,9.798908234E0,9.800720888E0
3.591076945E0,8.374879509E-2,1.674975902E-1,9.815657616E0,9.817443849E0
3.593483924E0,1.004985496E-1,1.483550072E-1,9.806086540E0,9.807723610E0
3.595890903E0,8.135596663E-2,1.459621787E-1,9.806086540E0,9.807510234E0
3.598297883E0,7.896314561E-2,1.531406492E-1,9.801301003E0,9.802815339E0
3.600704862E0,8.374879509E-2,1.579262912E-1,9.808479309E0,9.810108100E0
3.603111841E0,9.332008660E-2,1.627119333E-1,9.810872078E0,9.812665017E0
3.605518820E0,1.004985496E-1,1.555334777E-1,9.808479309E0,9.810227162E0
3.607925799E0,9.810572863E-2,1.627119333E-1,9.803693771E0,9.805534737E0
3.610332778E0,9.810572863E-2,1.603191197E-1,9.815657616E0,9.817456971E0
3.612739758E0,9.092725813E-2,1.579262912E-1,9.803693771E0,9.805387297E0
3.615146737E0,8.853443712E-2,1.411765367E-1,9.806086540E0,9.807502353E0
3.617553716E0,8.135596663E-2,1.531406492E-1,9.791728973E0,9.793264376E0
3.619960695E0,9.092725813E-2,1.483550072E-1,9.796515465E0,9.798060636E0
3.622367674E0,1.004985496E-1,1.555334777E-1,9.801301003E0,9.803050136E0
3.624774653E0,7.896314561E-2,1.603191197E-1,9.803693771E0,9.805322481E0
3.627181633E0,8.135596663E-2,1.651047617E-1,9.815657616E0,9.817383195E0
3.629588612E0,9.092725813E-2,1.531406492E-1,9.803693771E0,9.805311387E0
3.631995591E0,8.853443712E-2,1.579262912E-1,9.808479309E0,9.810150122E0
3.634402570E0,9.332008660E-2,1.507478207E-1,9.801301003E0,9.802904411E0
3.636809549E0,9.092725813E-2,1.627119333E-1,9.796515465E0,9.798288534E0
3.639216528E0,1.004985496E-1,1.722832322E-1,9.803693771E0,9.805722464E0
3.641623508E0,9.092725813E-2,1.579262912E-1,9.794121742E0,9.795816923E0
3.644030487E0,8.853443712E-2,1.627119333E-1,9.794121742E0,9.795873326E0
3.646437466E0,8.374879509E-2,1.603191197E-1,9.777372360E0,9.779045268E0
3.648844445E0,9.810572863E-2,1.603191197E-1,9.782157898E0,9.783963414E0
3.651251424E0,7.178468257E-2,1.531406492E-1,9.801301003E0,9.802760144E0
3.653658403E0,7.657032460E-2,1.459621787E-1,9.794121742E0,9.795508597E0
3.656065383E0,7.417750359E-2,1.674975902E-1,9.791728973E0,9.793442400E0
3.658472362E0,8.374879509E-2,1.698904037E-1,9.806086540E0,9.807915673E0
3.660879341E0,1.004985496E-1,1.770688742E-1,9.803693771E0,9.805807713E0
3.663286320E0,9.332008660E-2,1.531406492E-1,9.794121742E0,9.795763441E0
3.665693299E0,9.092725813E-2,1.531406492E-1,9.796515465E0,9.798134265E0
3.668100278E0,9.332008660E-2,1.459621787E-1,9.789336205E0,9.790869059E0
3.670507258E0,1.004985496E-1,1.387837082E-1,9.789336205E0,9.790835725E0
3.672914237E0,8.374879509E-2,1.579262912E-1,9.794121742E0,9.795752920E0
3.675321216E0,9.092725813E-2,1.459621787E-1,9.808479309E0,9.809986701E0
3.677728195E0,8.374879509E-2,1.483550072E-1,9.803693771E0,9.805173871E0
3.680135174E0,8.374879509E-2,1.459621787E-1,9.798908234E0,9.800353126E0
3.682542153E0,9.810572863E-2,1.435693651E-1,9.801301003E0,9.802843375E0
3.684949133E0,6.939185411E-2,1.579262912E-1,9.810872078E0,9.812388439E0
3.687356112E0,7.417750359E-2,1.627119333E-1,9.803693771E0,9.805324525E0
3.689763091E0,9.571290761E-2,1.722832322E-1,9.806086540E0,9.808066869E0
3.692170070E0,9.810572863E-2,1.507478207E-1,9.813264847E0,9.814912969E0
3.694577049E0,9.332008660E-2,1.627119333E-1,9.806086540E0,9.807880354E0
3.696984028E0,9.571290761E-2,1.507478207E-1,9.808479309E0,9.810104598E0
3.699391008E0,8.374879509E-2,1.531406492E-1,9.806086540E0,9.807639836E0
3.701797987E0,9.332008660E-2,1.627119333E-1,9.801301003E0,9.803095692E0
3.704204966E0,9.092725813E-2,1.459621787E-1,9.782157898E0,9.783669346E0
3.706611945E0,9.092725813E-2,1.698904037E-1,9.801301003E0,9.803194982E0
3.709018924E0,8.374879509E-2,1.651047617E-1,9.798908234E0,9.800656917E0
3.711425903E0,9.092725813E-2,1.627119333E-1,9.801301003E0,9.803073206E0
3.713832883E0,9.332008660E-2,1.579262912E-1,9.808479309E0,9.810194479E0
3.716239862E0,9.092725813E-2,1.698904037E-1,9.794121742E0,9.796017110E0
3.718646841E0,8.374879509E-2,1.579262912E-1,9.794121742E0,9.795752920E0
3.721053820E0,7.896314561E-2,1.531406492E-1,9.798908234E0,9.800422940E0
3.723460799E0,9.332008660E-2,1.507478207E-1,9.794121742E0,9.795726326E0
3.725867778E0,9.810572863E-2,1.411765367E-1,9.791728973E0,9.793238067E0
3.728274758E0,8.853443712E-2,1.483550072E-1,9.806086540E0,9.807608311E0
3.730681737E0,8.853443712E-2,1.435693651E-1,9.796515465E0,9.797967430E0
3.733088716E0,9.571290761E-2,1.459621787E-1,9.803693771E0,9.805247446E0
3.735495695E0,8.374879509E-2,1.483550072E-1,9.810872078E0,9.812351094E0
3.737902674E0,9.092725813E-2,1.459621787E-1,9.794121742E0,9.795631344E0
3.740309653E0,7.896314561E-2,1.531406492E-1,9.794121742E0,9.795637189E0
3.742716633E0,9.092725813E-2,1.555334777E-1,9.791728973E0,9.793386274E0
3.745123612E0,9.810572863E-2,1.292124242E-1,9.806086540E0,9.807428502E0
3.747530591E0,1.100698411E-1,1.292124242E-1,9.803693771E0,9.805163068E0
3.749937570E0,1.004985496E-1,1.435693651E-1,9.796515465E0,9.798082842E0
3.752344549E0,9.092725813E-2,1.363908947E-1,9.798908234E0,9.800279221E0
3.754751528E0,1.100698411E-1,1.483550072E-1,9.815657616E0,9.817395734E0
3.757158508E0,1.052841991E-1,1.555334777E-1,9.796515465E0,9.798315706E0
3.759565487E0,1.052841991E-1,1.459621787E-1,9.801301003E0,9.802953181E0
3.761972466E0,7.657032460E-2,1.507478207E-1,9.796515465E0,9.797974442E0
3.764379445E0,9.332008660E-2,1.459621787E-1,9.798908234E0,9.800439591E0
3.766786424E0,9.092725813E-2,1.483550072E-1,9.803693771E0,9.805237811E0
3.769193403E0,8.374879509E-2,1.555334777E-1,9.796515465E0,9.798107969E0
3.771600383E0,9.332008660E-2,1.555334777E-1,9.796515465E0,9.798194454E0
3.774007362E0,8.614161611E-2,1.531406492E-1,9.806086540E0,9.807660561E0
3.776414341E0,1.028913707E-1,1.531406492E-1,9.808479309E0,9.810214322E0
3.778821320E0,1.028913707E-1,1.555334777E-1,9.803693771E0,9.805467294E0
3.781228299E0,1.052841991E-1,1.316052526E-1,9.803693771E0,9.805142338E0
3.783635278E0,8.853443712E-2,1.411765367E-1,9.796515465E0,9.797932660E0
3.786042258E0,9.571290761E-2,1.603191197E-1,9.789336205E0,9.791116714E0
3.788449237E0,9.092725813E-2,1.603191197E-1,9.796515465E0,9.798249090E0
3.790856216E0,1.004985496E-1,1.579262912E-1,9.786943436E0,9.788733446E0
3.793263195E0,8.853443712E-2,1.531406492E-1,9.786943436E0,9.788541884E0
3.795670174E0,1.100698411E-1,1.555334777E-1,9.786943436E0,9.788798080E0
3.798077153E0,9.332008660E-2,1.698904037E-1,9.794121742E0,9.796039613E0
3.800484133E0,9.571290761E-2,1.579262912E-1,9.808479309E0,9.810217532E0
3.802891112E0,8.614161611E-2,1.579262912E-1,9.801301003E0,9.802951720E0
3.805298091E0,8.614161611E-2,1.603191197E-1,9.808479309E0,9.810167631E0
3.807705070E0,8.135596663E-2,1.674975902E-1,9.794121742E0,9.795891738E0
3.810112049E0,8.614161611E-2,1.627119333E-1,9.806086540E0,9.807814679E0
3.812519028E0,8.135596663E-2,1.579262912E-1,9.810872078E0,9.812480341E0
3.814926008E0,8.135596663E-2,1.459621787E-1,9.798908234E0,9.800332970E0
3.817332987E0,8.614161611E-2,1.387837082E-1,9.801301003E0,9.802662018E0
3.819739966E0,8.135596663E-2,1.507478207E-1,9.794121742E0,9.795619654E0
3.822146945E0,8.614161611E-2,1.603191197E-1,9.801301003E0,9.802990561E0
3.824553924E0,1.004985496E-1,1.603191197E-1,9.789336205E0,9.791164665E0
3.826960903E0,1.004985496E-1,1.603191197E-1,9.801301003E0,9.803127232E0
3.829367883E0,1.196411327E-1,1.579262912E-1,9.782157898E0,9.784164137E0
3.831774862E0,1.004985496E-1,1.579262912E-1,9.782157898E0,9.783948784E0
3.834181841E0,9.571290761E-2,1.603191197E-1,9.801301003E0,9.803079339E0
3.836588820E0,6.699903309E-2,1.674975902E-1,9.796515465E0,9.798176339E0
3.838995799E0,9.092725813E-2,1.603191197E-1,9.803693771E0,9.805426128E0
3.841402778E0,9.571290761E-2,1.531406492E-1,9.801301003E0,9.802964570E0
3.843809758E0,7.896314561E-2,1.651047617E-1,9.801301003E0,9.803009543E0
3.846216737E0,8.853443712E-2,1.531406492E-1,9.803693771E0,9.805289489E0
3.848623716E0,9.092725813E-2,1.483550072E-1,9.794121742E0,9.795667291E0
3.851030695E0,7.417750359E-2,1.555334777E-1,9.813264847E0,9.814777630E0
3.853437674E0,8.853443712E-2,1.579262912E-1,9.808479309E0,9.810150122E0
3.855844653E0,1.004985496E-1,1.579262912E-1,9.806086540E0,9.807873057E0
3.858251633E0,1.100698411E-1,1.627119333E-1,9.801301003E0,9.803269449E0
3.860658612E0,1.052841991E-1,1.531406492E-1,9.801301003E0,9.803062693E0
3.863065591E0,1.052841991E-1,1.651047617E-1,9.803693771E0,9.805649183E0
3.865472570E0,8.614161611E-2,1.483550072E-1,9.796515465E0,9.798017393E0
3.867879549E0,7.896314561E-2,1.555334777E-1,9.818050385E0,9.819599747E0
3.870286528E0,7.657032460E-2,1.387837082E-1,9.810872078E0,9.812152407E0
3.872693508E0,9.092725813E-2,1.603191197E-1,9.803693771E0,9.805426128E0
3.875100487E0,9.092725813E-2,1.483550072E-1,9.803693771E0,9.805237811E0
3.877507466E0,9.810572863E-2,1.531406492E-1,9.796515465E0,9.798203511E0
3.879914445E0,9.571290761E-2,1.459621787E-1,9.796515465E0,9.798070278E0
3.882321424E0,1.004985496E-1,1.651047617E-1,9.803693771E0,9.805598967E0
3.884728403E0,9.092725813E-2,1.746760458E-1,9.791728973E0,9.793708990E0
3.887135383E0,8.614161611E-2,1.603191197E-1,9.794121742E0,9.795812539E0
3.889542362E0,9.092725813E-2,1.627119333E-1,9.810872078E0,9.812642553E0
3.891949341E0,1.004985496E-1,1.555334777E-1,9.801301003E0,9.803050136E0
3.894356320E0,8.374879509E-2,1.746760458E-1,9.794121742E0,9.796037275E0
3.896763299E0,8.135596663E-2,1.674975902E-1,9.806086540E0,9.807854376E0
3.899170278E0,8.614161611E-2,1.483550072E-1,9.798908234E0,9.800409795E0
3.901577258E0,8.374879509E-2,1.435693651E-1,9.803693771E0,9.805102630E0
3.903984237E0,7.657032460E-2,1.507478207E-1,9.806086540E0,9.807544094E0
3.906391216E0,9.571290761E-2,1.579262912E-1,9.801301003E0,9.803040499E0
3.908798195E0,9.332008660E-2,1.627119333E-1,9.786943436E0,9.788740758E0
3.911205174E0,1.028913707E-1,1.459621787E-1,9.779765129E0,9.781395482E0
3.913612153E0,1.004985496E-1,1.555334777E-1,9.794121742E0,9.795872157E0
3.916019133E0,1.124626622E-1,1.555334777E-1,9.810872078E0,9.812749331E0
3.918426112E0,1.028913707E-1,1.363908947E-1,9.796515465E0,9.798005122E0
3.920833091E0,1.004985496E-1,1.316052526E-1,9.798908234E0,9.800307264E0
3.923240070E0,8.853443712E-2,1.411765367E-1,9.798908234E0,9.800325083E0
3.925647049E0,8.614161611E-2,1.674975902E-1,9.803693771E0,9.805502913E0
3.928054028E0,8.374879509E-2,1.507478207E-1,9.808479309E0,9.809995164E0
3.930461008E0,8.853443712E-2,1.555334777E-1,9.818050385E0,9.819681378E0
3.932867987E0,7.657032460E-2,1.459621787E-1,9.796515465E0,9.797901981E0
3.935274966E0,6.699903309E-2,1.507478207E-1,9.784550667E0,9.785941218E0
3.937681945E0,7.896314561E-2,1.627119333E-1,9.791728973E0,9.793399136E0
3.940088924E0,7.896314561E-2,1.531406492E-1,9.796515465E0,9.798030541E0
3.942495903E0,8.853443712E-2,1.339980662E-1,9.803693771E0,9.805009199E0
3.944902883E0,9.092725813E-2,1.339980662E-1,9.806086540E0,9.807423539E0
3.947309862E0,8.853443712E-2,1.483550072E-1,9.803693771E0,9.805215914E0
3.949716841E0,6.939185411E-2,1.507478207E-1,9.815657616E0,9.817060383E0
3.952123820E0,8.853443712E-2,1.627119333E-1,9.801301003E0,9.803051304E0
3.954530799E0,8.374879509E-2,1.507478207E-1,9.803693771E0,9.805210366E0
3.956937778E0,8.374879509E-2,1.627119333E-1,9.808479309E0,9.810186308E0
3.959344758E0,8.614161611E-2,1.555334777E-1,9.806086540E0,9.807698215E0
3.961751737E0,9.092725813E-2,1.459621787E-1,9.791728973E0,9.793238944E0
3.964158716E0,9.092725813E-2,1.507478207E-1,9.794121742E0,9.795703822E0
3.966565695E0,8.614161611E-2,1.411765367E-1,9.808479309E0,9.809873473E0
3.968972674E0,9.092725813E-2,1.555334777E-1,9.815657616E0,9.817310877E0
3.971379653E0,9.332008660E-2,1.555334777E-1,9.796515465E0,9.798194454E0
3.973786633E0,9.571290761E-2,1.603191197E-1,9.798908234E0,9.800687004E0
3.976193612E0,7.417750359E-2,1.531406492E-1,9.810872078E0,9.812347593E0
3.978600591E0,9.092725813E-2,1.627119333E-1,9.810872078E0,9.812642553E0
3.981007570E0,1.052841991E-1,1.579262912E-1,9.803693771E0,9.805530941E0
3.983414549E0,1.076770201E-1,1.627119333E-1,9.791728973E0,9.793672743E0
3.985821528E0,9.332008660E-2,1.507478207E-1,9.794121742E0,9.795726326E0
3.988228508E0,8.374879509E-2,1.339980662E-1,9.796515465E0,9.797789781E0
3.990635487E0,9.810572863E-2,1.316052526E-1,9.798908234E0,9.800283019E0
3.993042466E0,9.571290761E-2,1.435693651E-1,9.794121742E0,9.795641573E0
3.995449445E0,8.853443712E-2,1.722832322E-1,9.786943436E0,9.788860080E0
3.997856424E0,8.614161611E-2,1.603191197E-1,9.784550667E0,9.786243117E0
4.000263403E0,7.896314561E-2,1.555334777E-1,9.789336205E0,9.790890111E0
4.002670383E0,1.028913707E-1,1.555334777E-1,9.791728973E0,9.793504663E0
4.005077310E0,9.332008660E-2,1.507478207E-1,9.794121742E0,9.795726326E0
4.007484289E0,9.092725813E-2,1.579262912E-1,9.801301003E0,9.802994941E0
4.009891268E0,9.092725813E-2,1.651047617E-1,9.796515465E0,9.798328562E0
4.012298247E0,1.052841991E-1,1.483550072E-1,9.806086540E0,9.807773815E0
4.014705278E0,1.076770201E-1,1.268195957E-1,9.808479309E0,9.809890107E0
4.017112258E0,9.810572863E-2,1.435693651E-1,9.808479309E0,9.810020553E0
4.019519185E0,9.092725813E-2,1.531406492E-1,9.808479309E0,9.810096135E0
4.021926164E0,8.853443712E-2,1.459621787E-1,9.810872078E0,9.812357221E0
4.024333143E0,1.124626622E-1,1.483550072E-1,9.801301003E0,9.803068826E0
4.026740122E0,1.004985496E-1,1.627119333E-1,9.806086540E0,9.807951283E0
